participant_private_id,participant_device_type,participant_browser,spreadsheet_name,spreadsheet_row,trial_number,rt,response,correct,answer,condition,fricative,minimal_pair,syllable,item,visual_cues,logfreq,intensity,hasCue,cog,vowel,f1,f2,loudness_accuracy,mcgurk_rate,glasses,impairment,age,gender,country,country_text,education,political,mask_after,mask_before,mask_people,mask_perception,mask_spread,mask_freedom,mask_vulnerable
4373971,mobile,Mobile Safari 14.1.1,nm_1,46,3,468.99999999998545,S,TRUE,S,NM,SS,pair,onset,sigh,FALSE,3.66,41.37901249,0,5979,aɪ,509.30414504772887,1388.106480031303,0.8,0.5,No,No,19,female,Other (please specify),The Russian Federation,high school,prefer not to say,5,1,4,4,3,5,4
4373971,mobile,Mobile Safari 14.1.1,nm_1,43,4,717.0000000000146,S,TRUE,S,NM,SS,pair,coda,mess,FALSE,4.79,36.17035307,0,5457,ɛ,628.444388543489,1653.820775737603,0.8,0.5,No,No,19,female,Other (please specify),The Russian Federation,high school,prefer not to say,5,1,4,4,3,5,4
4373971,mobile,Mobile Safari 14.1.1,nm_1,58,5,384,SH,FALSE,TH,NM,TH,pair,onset,thin,TRUE,4.48,30.14064943,2,2954,ɪ,424.2859030964207,1971.0932396265157,0.8,0.5,No,No,19,female,Other (please specify),The Russian Federation,high school,prefer not to say,5,1,4,4,3,5,4
4373971,mobile,Mobile Safari 14.1.1,nm_1,50,7,474,S,TRUE,S,NM,SS,pair,onset,soul,FALSE,4.53,40.65935899,0,5973,əʊ,488.7883811553887,837.4153882714268,0.8,0.5,No,No,19,female,Other (please specify),The Russian Federation,high school,prefer not to say,5,1,4,4,3,5,4
4373971,mobile,Mobile Safari 14.1.1,nm_1,38,10,741,SH,TRUE,SH,NM,SH,pair,onset,shore,FALSE,4.12,37.97554534,0,4134,ɔ:,466.6179707694524,1175.1149784517122,0.8,0.5,No,No,19,female,Other (please specify),The Russian Federation,high school,prefer not to say,5,1,4,4,3,5,4
4373971,mobile,Mobile Safari 14.1.1,nm_1,23,11,556.9999999999854,F,TRUE,F,NM,FF,pair,coda,oaf,TRUE,2.7,27.98698369,1,6466,əʊ,472.57339295927466,1180.0522494371749,0.8,0.5,No,No,19,female,Other (please specify),The Russian Federation,high school,prefer not to say,5,1,4,4,3,5,4
4373971,mobile,Mobile Safari 14.1.1,nm_1,52,13,1108.9999999999854,TH,TRUE,TH,NM,TH,pair,coda,loath,TRUE,2.69,27.1697819,1,4313,əʊ,449.7029396444894,1115.2451376787778,0.8,0.5,No,No,19,female,Other (please specify),The Russian Federation,high school,prefer not to say,5,1,4,4,3,5,4
4373971,mobile,Mobile Safari 14.1.1,nm_1,56,14,478.00000000001455,TH,TRUE,TH,NM,TH,pair,onset,thaw,TRUE,3.27,28.96203439,2,8045,ɔ:,435.1453476697292,808.8805808693594,0.8,0.5,No,No,19,female,Other (please specify),The Russian Federation,high school,prefer not to say,5,1,4,4,3,5,4
4373971,mobile,Mobile Safari 14.1.1,nm_1,54,15,1827.000000000029,TH,TRUE,TH,NM,TH,pair,coda,ruth,TRUE,4.39,29.52085089,1,3193,u:,356.2940484527308,1278.746062263053,0.8,0.5,No,No,19,female,Other (please specify),The Russian Federation,high school,prefer not to say,5,1,4,4,3,5,4
4373971,mobile,Mobile Safari 14.1.1,nm_1,41,16,895,S,TRUE,S,NM,SS,pair,coda,ass,FALSE,4.09,39.03014753,0,5034,a,718.4349765510347,1476.9724719998735,0.8,0.5,No,No,19,female,Other (please specify),The Russian Federation,high school,prefer not to say,5,1,4,4,3,5,4
4373971,mobile,Mobile Safari 14.1.1,nm_1,55,17,565,TH,TRUE,TH,NM,TH,pair,coda,wreath,TRUE,3.28,26.84374713,2,6030,i:,349.13545342914,2016.8549233676465,0.8,0.5,No,No,19,female,Other (please specify),The Russian Federation,high school,prefer not to say,5,1,4,4,3,5,4
4373971,mobile,Mobile Safari 14.1.1,nm_1,33,18,512,SH,TRUE,SH,NM,SH,pair,coda,mesh,FALSE,3.27,33.56798697,0,3601,ɛ,558.9508597606649,1699.9650124253706,0.8,0.5,No,No,19,female,Other (please specify),The Russian Federation,high school,prefer not to say,5,1,4,4,3,5,4
4373971,mobile,Mobile Safari 14.1.1,nm_1,60,22,771,TH,TRUE,TH,NM,TH,pair,onset,thought,TRUE,5.84,30.03527609,2,7602,ɔ:,454.5535158131208,1126.436300020404,0.8,0.5,No,No,19,female,Other (please specify),The Russian Federation,high school,prefer not to say,5,1,4,4,3,5,4
4373971,mobile,Mobile Safari 14.1.1,nm_1,28,23,449,F,TRUE,F,NM,FF,pair,onset,foal,TRUE,3.15,28.57906601,1,9802,əʊ,452.4908077590797,806.181080281329,0.8,0.5,No,No,19,female,Other (please specify),The Russian Federation,high school,prefer not to say,5,1,4,4,3,5,4
4373971,mobile,Mobile Safari 14.1.1,nm_1,21,24,2601,TH,FALSE,F,NM,FF,pair,coda,deaf,TRUE,3.9,27.47261099,1,6129,e,609.7158180834749,1637.553975745216,0.8,0.5,No,No,19,female,Other (please specify),The Russian Federation,high school,prefer not to say,5,1,4,4,3,5,4
4373971,mobile,Mobile Safari 14.1.1,nm_1,36,25,543,SH,TRUE,SH,NM,SH,pair,onset,shin,FALSE,3.3,38.63219732,0,3542,ɪ,428.0573131118717,2012.7319368425408,0.8,0.5,No,No,19,female,Other (please specify),The Russian Federation,high school,prefer not to say,5,1,4,4,3,5,4
4373971,mobile,Mobile Safari 14.1.1,nm_1,37,26,454,SH,TRUE,SH,NM,SH,pair,onset,shoal,FALSE,3.04,37.64432653,0,3948,əʊ,500.6312383937159,1031.0206693781254,0.8,0.5,No,No,19,female,Other (please specify),The Russian Federation,high school,prefer not to say,5,1,4,4,3,5,4
4373971,mobile,Mobile Safari 14.1.1,nm_1,42,27,402.0000000000291,S,TRUE,S,NM,SS,pair,coda,lease,FALSE,3.84,39.49037225,0,5490,i:,287.40550444881274,2354.793065190407,0.8,0.5,No,No,19,female,Other (please specify),The Russian Federation,high school,prefer not to say,5,1,4,4,3,5,4
4373971,mobile,Mobile Safari 14.1.1,nm_1,48,28,421.0000000000291,S,TRUE,S,NM,SS,pair,onset,sore,FALSE,4.06,44.26134749,0,5943,ɔ:,437.5607903939694,1155.5882277347737,0.8,0.5,No,No,19,female,Other (please specify),The Russian Federation,high school,prefer not to say,5,1,4,4,3,5,4
4373971,mobile,Mobile Safari 14.1.1,nm_1,49,29,565,TH,FALSE,S,NM,SS,pair,onset,sought,FALSE,4.13,42.84970627,0,5753,ɔ:,449.13357223033415,1000.69297730879,0.8,0.5,No,No,19,female,Other (please specify),The Russian Federation,high school,prefer not to say,5,1,4,4,3,5,4
4373971,mobile,Mobile Safari 14.1.1,nm_1,59,30,436.0000000000291,TH,TRUE,TH,NM,TH,pair,onset,thole,TRUE,1.54,30.4873532,2,8529,əʊ,487.9462078116454,945.9301497091374,0.8,0.5,No,No,19,female,Other (please specify),The Russian Federation,high school,prefer not to say,5,1,4,4,3,5,4
4373971,mobile,Mobile Safari 14.1.1,nm_1,25,31,565,F,TRUE,F,NM,FF,pair,coda,roof,TRUE,4.72,32.55925052,1,5188,u:,441.0453789240863,1379.6535606635946,0.8,0.5,No,No,19,female,Other (please specify),The Russian Federation,high school,prefer not to say,5,1,4,4,3,5,4
4373971,mobile,Mobile Safari 14.1.1,nm_1,26,32,438.9999999999709,F,TRUE,F,NM,FF,pair,onset,fie,TRUE,2.47,30.77713035,1,8472,aɪ,498.69053418185376,1402.6273181156027,0.8,0.5,No,No,19,female,Other (please specify),The Russian Federation,high school,prefer not to say,5,1,4,4,3,5,4
4373971,mobile,Mobile Safari 14.1.1,nm_1,34,34,562.0000000000291,SH,TRUE,SH,NM,SH,pair,coda,plush,FALSE,2.98,33.82094552,0,4158,ʌ,590.105107191927,1053.0985381501737,0.8,0.5,No,No,19,female,Other (please specify),The Russian Federation,high school,prefer not to say,5,1,4,4,3,5,4
4373971,mobile,Mobile Safari 14.1.1,nm_1,22,35,550,F,TRUE,F,NM,FF,pair,coda,loaf,TRUE,3.77,29.03169428,1,6083,əʊ,450.0518968001741,1137.85837798808,0.8,0.5,No,No,19,female,Other (please specify),The Russian Federation,high school,prefer not to say,5,1,4,4,3,5,4
4373971,mobile,Mobile Safari 14.1.1,nm_1,57,36,871,TH,TRUE,TH,NM,TH,pair,onset,thigh,TRUE,3.48,32.62028023,2,4097,aɪ,528.706484934861,1449.172226026241,0.8,0.5,No,No,19,female,Other (please specify),The Russian Federation,high school,prefer not to say,5,1,4,4,3,5,4
4373971,mobile,Mobile Safari 14.1.1,nm_1,32,37,413,SH,TRUE,SH,NM,SH,pair,coda,leash,FALSE,3.12,34.41750304,0,3351,i:,297.340730292577,2363.507119747921,0.8,0.5,No,No,19,female,Other (please specify),The Russian Federation,high school,prefer not to say,5,1,4,4,3,5,4
4373971,mobile,Mobile Safari 14.1.1,nm_1,24,38,489,F,TRUE,F,NM,FF,pair,coda,reef,TRUE,3.79,29.65935414,1,6900,i:,350.4359996049278,1973.3230597501824,0.8,0.5,No,No,19,female,Other (please specify),The Russian Federation,high school,prefer not to say,5,1,4,4,3,5,4
4373971,mobile,Mobile Safari 14.1.1,nm_1,40,40,493.0000000000291,SH,TRUE,SH,NM,SH,pair,onset,shy,FALSE,4.27,39.50228141,0,3622,ʌɪ,633.998539992286,1682.0075151606634,0.8,0.5,No,No,19,female,Other (please specify),The Russian Federation,high school,prefer not to say,5,1,4,4,3,5,4
4373971,mobile,Mobile Safari 14.1.1,nm_1,29,41,650,F,TRUE,F,NM,FF,pair,onset,fought,TRUE,4.47,34.6954365,1,8605,ɔ:,448.2673753038556,861.6077780914028,0.8,0.5,No,No,19,female,Other (please specify),The Russian Federation,high school,prefer not to say,5,1,4,4,3,5,4
4373971,mobile,Mobile Safari 14.1.1,nm_1,30,42,385,F,TRUE,F,NM,FF,pair,onset,four,TRUE,5.67,34.37218612,1,9416,ɔ:,452.2742670429064,908.1617544348076,0.8,0.5,No,No,19,female,Other (please specify),The Russian Federation,high school,prefer not to say,5,1,4,4,3,5,4
4373971,mobile,Mobile Safari 14.1.1,nm_1,53,44,677,TH,TRUE,TH,NM,TH,pair,coda,oath,TRUE,3.54,28.61263962,1,5905,əʊ,462.9541289738834,1188.000083415647,0.8,0.5,No,No,19,female,Other (please specify),The Russian Federation,high school,prefer not to say,5,1,4,4,3,5,4
4373971,mobile,Mobile Safari 14.1.1,nm_1,47,45,442,S,TRUE,S,NM,SS,pair,onset,sin,FALSE,3.96,43.9163708,0,5970,ɪ,416.70711900247017,1881.87631709883,0.8,0.5,No,No,19,female,Other (please specify),The Russian Federation,high school,prefer not to say,5,1,4,4,3,5,4
4373971,mobile,Mobile Safari 14.1.1,nm_1,35,46,476,SH,TRUE,SH,NM,SH,pair,coda,push,FALSE,4.92,34.83622897,0,3617,ʊ,444.06320867077545,1052.8060205473794,0.8,0.5,No,No,19,female,Other (please specify),The Russian Federation,high school,prefer not to say,5,1,4,4,3,5,4
4373971,mobile,Mobile Safari 14.1.1,nm_1,31,47,486,SH,TRUE,SH,NM,SH,pair,coda,ash,FALSE,4.19,35.42637673,0,3533,a,614.3227347989738,1500.7920108495807,0.8,0.5,No,No,19,female,Other (please specify),The Russian Federation,high school,prefer not to say,5,1,4,4,3,5,4
4373971,mobile,Mobile Safari 14.1.1,nm_1,39,50,519,SH,TRUE,SH,NM,SH,pair,onset,short,FALSE,5.13,37.41534288,0,4620,ɔ:,489.9511213017793,1540.7832085298107,0.8,0.5,No,No,19,female,Other (please specify),The Russian Federation,high school,prefer not to say,5,1,4,4,3,5,4
4373971,mobile,Mobile Safari 14.1.1,nm_1,45,51,347.0000000000291,S,TRUE,S,NM,SS,pair,coda,puss,FALSE,3.12,38.76511023,0,5439,ʊ,433.7419937400706,1025.6692679574835,0.8,0.5,No,No,19,female,Other (please specify),The Russian Federation,high school,prefer not to say,5,1,4,4,3,5,4
4373971,mobile,Mobile Safari 14.1.1,nm_1,51,55,371,TH,TRUE,TH,NM,TH,pair,coda,death,TRUE,5.14,25.17853656,2,4331,ɛ,625.846855705086,1657.2325794868837,0.8,0.5,No,No,19,female,Other (please specify),The Russian Federation,high school,prefer not to say,5,1,4,4,3,5,4
4373971,mobile,Mobile Safari 14.1.1,nm_1,27,59,370,F,TRUE,F,NM,FF,pair,onset,fin,TRUE,3.59,31.84145761,1,5117,ɪ,441.4452841620668,1945.6091687046203,0.8,0.5,No,No,19,female,Other (please specify),The Russian Federation,high school,prefer not to say,5,1,4,4,3,5,4
4373971,mobile,Mobile Safari 14.1.1,nm_1,44,60,438.0000000000582,S,TRUE,S,NM,SS,pair,coda,plus,FALSE,4.78,36.53544495,0,5201,ʌ,637.2470101127309,1202.1883602585203,0.8,0.5,No,No,19,female,Other (please specify),The Russian Federation,high school,prefer not to say,5,1,4,4,3,5,4
4387038,computer,Firefox 90.0,nm_1,46,1,2211,S,TRUE,S,NM,SS,pair,onset,sigh,FALSE,3.66,41.37901249,0,5979,aɪ,509.30414504772887,1388.106480031303,0.8,0.5,No,No,22,male,Other (please specify),first 3 years of my life: Australia; then: Germany,MA/MSc,left/liberal,6,1,4,6,7,1,6
4387038,computer,Firefox 90.0,nm_1,48,3,2654,S,TRUE,S,NM,SS,pair,onset,sore,FALSE,4.06,44.26134749,0,5943,ɔ:,437.5607903939694,1155.5882277347737,0.8,0.5,No,No,22,male,Other (please specify),first 3 years of my life: Australia; then: Germany,MA/MSc,left/liberal,6,1,4,6,7,1,6
4387038,computer,Firefox 90.0,nm_1,25,5,1637,F,TRUE,F,NM,FF,pair,coda,roof,TRUE,4.72,32.55925052,1,5188,u:,441.0453789240863,1379.6535606635946,0.8,0.5,No,No,22,male,Other (please specify),first 3 years of my life: Australia; then: Germany,MA/MSc,left/liberal,6,1,4,6,7,1,6
4387038,computer,Firefox 90.0,nm_1,50,7,1149,S,TRUE,S,NM,SS,pair,onset,soul,FALSE,4.53,40.65935899,0,5973,əʊ,488.7883811553887,837.4153882714268,0.8,0.5,No,No,22,male,Other (please specify),first 3 years of my life: Australia; then: Germany,MA/MSc,left/liberal,6,1,4,6,7,1,6
4387038,computer,Firefox 90.0,nm_1,38,8,815,SH,TRUE,SH,NM,SH,pair,onset,shore,FALSE,4.12,37.97554534,0,4134,ɔ:,466.6179707694524,1175.1149784517122,0.8,0.5,No,No,22,male,Other (please specify),first 3 years of my life: Australia; then: Germany,MA/MSc,left/liberal,6,1,4,6,7,1,6
4387038,computer,Firefox 90.0,nm_1,55,9,849,TH,TRUE,TH,NM,TH,pair,coda,wreath,TRUE,3.28,26.84374713,2,6030,i:,349.13545342914,2016.8549233676465,0.8,0.5,No,No,22,male,Other (please specify),first 3 years of my life: Australia; then: Germany,MA/MSc,left/liberal,6,1,4,6,7,1,6
4387038,computer,Firefox 90.0,nm_1,26,15,767,F,TRUE,F,NM,FF,pair,onset,fie,TRUE,2.47,30.77713035,1,8472,aɪ,498.69053418185376,1402.6273181156027,0.8,0.5,No,No,22,male,Other (please specify),first 3 years of my life: Australia; then: Germany,MA/MSc,left/liberal,6,1,4,6,7,1,6
4387038,computer,Firefox 90.0,nm_1,58,16,811,TH,TRUE,TH,NM,TH,pair,onset,thin,TRUE,4.48,30.14064943,2,2954,ɪ,424.2859030964207,1971.0932396265157,0.8,0.5,No,No,22,male,Other (please specify),first 3 years of my life: Australia; then: Germany,MA/MSc,left/liberal,6,1,4,6,7,1,6
4387038,computer,Firefox 90.0,nm_1,24,17,1419,F,TRUE,F,NM,FF,pair,coda,reef,TRUE,3.79,29.65935414,1,6900,i:,350.4359996049278,1973.3230597501824,0.8,0.5,No,No,22,male,Other (please specify),first 3 years of my life: Australia; then: Germany,MA/MSc,left/liberal,6,1,4,6,7,1,6
4387038,computer,Firefox 90.0,nm_1,22,18,997,F,TRUE,F,NM,FF,pair,coda,loaf,TRUE,3.77,29.03169428,1,6083,əʊ,450.0518968001741,1137.85837798808,0.8,0.5,No,No,22,male,Other (please specify),first 3 years of my life: Australia; then: Germany,MA/MSc,left/liberal,6,1,4,6,7,1,6
4387038,computer,Firefox 90.0,nm_1,33,19,839,SH,TRUE,SH,NM,SH,pair,coda,mesh,FALSE,3.27,33.56798697,0,3601,ɛ,558.9508597606649,1699.9650124253706,0.8,0.5,No,No,22,male,Other (please specify),first 3 years of my life: Australia; then: Germany,MA/MSc,left/liberal,6,1,4,6,7,1,6
4387038,computer,Firefox 90.0,nm_1,37,20,1332,SH,TRUE,SH,NM,SH,pair,onset,shoal,FALSE,3.04,37.64432653,0,3948,əʊ,500.6312383937159,1031.0206693781254,0.8,0.5,No,No,22,male,Other (please specify),first 3 years of my life: Australia; then: Germany,MA/MSc,left/liberal,6,1,4,6,7,1,6
4387038,computer,Firefox 90.0,nm_1,53,22,881,TH,TRUE,TH,NM,TH,pair,coda,oath,TRUE,3.54,28.61263962,1,5905,əʊ,462.9541289738834,1188.000083415647,0.8,0.5,No,No,22,male,Other (please specify),first 3 years of my life: Australia; then: Germany,MA/MSc,left/liberal,6,1,4,6,7,1,6
4387038,computer,Firefox 90.0,nm_1,52,23,1623,TH,TRUE,TH,NM,TH,pair,coda,loath,TRUE,2.69,27.1697819,1,4313,əʊ,449.7029396444894,1115.2451376787778,0.8,0.5,No,No,22,male,Other (please specify),first 3 years of my life: Australia; then: Germany,MA/MSc,left/liberal,6,1,4,6,7,1,6
4387038,computer,Firefox 90.0,nm_1,29,24,975,F,TRUE,F,NM,FF,pair,onset,fought,TRUE,4.47,34.6954365,1,8605,ɔ:,448.2673753038556,861.6077780914028,0.8,0.5,No,No,22,male,Other (please specify),first 3 years of my life: Australia; then: Germany,MA/MSc,left/liberal,6,1,4,6,7,1,6
4387038,computer,Firefox 90.0,nm_1,49,25,1005,S,TRUE,S,NM,SS,pair,onset,sought,FALSE,4.13,42.84970627,0,5753,ɔ:,449.13357223033415,1000.69297730879,0.8,0.5,No,No,22,male,Other (please specify),first 3 years of my life: Australia; then: Germany,MA/MSc,left/liberal,6,1,4,6,7,1,6
4387038,computer,Firefox 90.0,nm_1,35,27,830,SH,TRUE,SH,NM,SH,pair,coda,push,FALSE,4.92,34.83622897,0,3617,ʊ,444.06320867077545,1052.8060205473794,0.8,0.5,No,No,22,male,Other (please specify),first 3 years of my life: Australia; then: Germany,MA/MSc,left/liberal,6,1,4,6,7,1,6
4387038,computer,Firefox 90.0,nm_1,39,28,687,SH,TRUE,SH,NM,SH,pair,onset,short,FALSE,5.13,37.41534288,0,4620,ɔ:,489.9511213017793,1540.7832085298107,0.8,0.5,No,No,22,male,Other (please specify),first 3 years of my life: Australia; then: Germany,MA/MSc,left/liberal,6,1,4,6,7,1,6
4387038,computer,Firefox 90.0,nm_1,43,29,800,S,TRUE,S,NM,SS,pair,coda,mess,FALSE,4.79,36.17035307,0,5457,ɛ,628.444388543489,1653.820775737603,0.8,0.5,No,No,22,male,Other (please specify),first 3 years of my life: Australia; then: Germany,MA/MSc,left/liberal,6,1,4,6,7,1,6
4387038,computer,Firefox 90.0,nm_1,42,30,1348,S,TRUE,S,NM,SS,pair,coda,lease,FALSE,3.84,39.49037225,0,5490,i:,287.40550444881274,2354.793065190407,0.8,0.5,No,No,22,male,Other (please specify),first 3 years of my life: Australia; then: Germany,MA/MSc,left/liberal,6,1,4,6,7,1,6
4387038,computer,Firefox 90.0,nm_1,34,31,621,SH,TRUE,SH,NM,SH,pair,coda,plush,FALSE,2.98,33.82094552,0,4158,ʌ,590.105107191927,1053.0985381501737,0.8,0.5,No,No,22,male,Other (please specify),first 3 years of my life: Australia; then: Germany,MA/MSc,left/liberal,6,1,4,6,7,1,6
4387038,computer,Firefox 90.0,nm_1,31,33,593,SH,TRUE,SH,NM,SH,pair,coda,ash,FALSE,4.19,35.42637673,0,3533,a,614.3227347989738,1500.7920108495807,0.8,0.5,No,No,22,male,Other (please specify),first 3 years of my life: Australia; then: Germany,MA/MSc,left/liberal,6,1,4,6,7,1,6
4387038,computer,Firefox 90.0,nm_1,51,34,721,TH,TRUE,TH,NM,TH,pair,coda,death,TRUE,5.14,25.17853656,2,4331,ɛ,625.846855705086,1657.2325794868837,0.8,0.5,No,No,22,male,Other (please specify),first 3 years of my life: Australia; then: Germany,MA/MSc,left/liberal,6,1,4,6,7,1,6
4387038,computer,Firefox 90.0,nm_1,36,35,814,SH,TRUE,SH,NM,SH,pair,onset,shin,FALSE,3.3,38.63219732,0,3542,ɪ,428.0573131118717,2012.7319368425408,0.8,0.5,No,No,22,male,Other (please specify),first 3 years of my life: Australia; then: Germany,MA/MSc,left/liberal,6,1,4,6,7,1,6
4387038,computer,Firefox 90.0,nm_1,60,36,372,TH,TRUE,TH,NM,TH,pair,onset,thought,TRUE,5.84,30.03527609,2,7602,ɔ:,454.5535158131208,1126.436300020404,0.8,0.5,No,No,22,male,Other (please specify),first 3 years of my life: Australia; then: Germany,MA/MSc,left/liberal,6,1,4,6,7,1,6
4387038,computer,Firefox 90.0,nm_1,27,37,608,TH,FALSE,F,NM,FF,pair,onset,fin,TRUE,3.59,31.84145761,1,5117,ɪ,441.4452841620668,1945.6091687046203,0.8,0.5,No,No,22,male,Other (please specify),first 3 years of my life: Australia; then: Germany,MA/MSc,left/liberal,6,1,4,6,7,1,6
4387038,computer,Firefox 90.0,nm_1,47,39,587,S,TRUE,S,NM,SS,pair,onset,sin,FALSE,3.96,43.9163708,0,5970,ɪ,416.70711900247017,1881.87631709883,0.8,0.5,No,No,22,male,Other (please specify),first 3 years of my life: Australia; then: Germany,MA/MSc,left/liberal,6,1,4,6,7,1,6
4387038,computer,Firefox 90.0,nm_1,41,42,761,S,TRUE,S,NM,SS,pair,coda,ass,FALSE,4.09,39.03014753,0,5034,a,718.4349765510347,1476.9724719998735,0.8,0.5,No,No,22,male,Other (please specify),first 3 years of my life: Australia; then: Germany,MA/MSc,left/liberal,6,1,4,6,7,1,6
4387038,computer,Firefox 90.0,nm_1,45,43,1616,S,TRUE,S,NM,SS,pair,coda,puss,FALSE,3.12,38.76511023,0,5439,ʊ,433.7419937400706,1025.6692679574835,0.8,0.5,No,No,22,male,Other (please specify),first 3 years of my life: Australia; then: Germany,MA/MSc,left/liberal,6,1,4,6,7,1,6
4387038,computer,Firefox 90.0,nm_1,32,44,1092,SH,TRUE,SH,NM,SH,pair,coda,leash,FALSE,3.12,34.41750304,0,3351,i:,297.340730292577,2363.507119747921,0.8,0.5,No,No,22,male,Other (please specify),first 3 years of my life: Australia; then: Germany,MA/MSc,left/liberal,6,1,4,6,7,1,6
4387038,computer,Firefox 90.0,nm_1,54,46,662,TH,TRUE,TH,NM,TH,pair,coda,ruth,TRUE,4.39,29.52085089,1,3193,u:,356.2940484527308,1278.746062263053,0.8,0.5,No,No,22,male,Other (please specify),first 3 years of my life: Australia; then: Germany,MA/MSc,left/liberal,6,1,4,6,7,1,6
4387038,computer,Firefox 90.0,nm_1,44,49,631,S,TRUE,S,NM,SS,pair,coda,plus,FALSE,4.78,36.53544495,0,5201,ʌ,637.2470101127309,1202.1883602585203,0.8,0.5,No,No,22,male,Other (please specify),first 3 years of my life: Australia; then: Germany,MA/MSc,left/liberal,6,1,4,6,7,1,6
4387038,computer,Firefox 90.0,nm_1,40,50,769,SH,TRUE,SH,NM,SH,pair,onset,shy,FALSE,4.27,39.50228141,0,3622,ʌɪ,633.998539992286,1682.0075151606634,0.8,0.5,No,No,22,male,Other (please specify),first 3 years of my life: Australia; then: Germany,MA/MSc,left/liberal,6,1,4,6,7,1,6
4387038,computer,Firefox 90.0,nm_1,56,53,707,TH,TRUE,TH,NM,TH,pair,onset,thaw,TRUE,3.27,28.96203439,2,8045,ɔ:,435.1453476697292,808.8805808693594,0.8,0.5,No,No,22,male,Other (please specify),first 3 years of my life: Australia; then: Germany,MA/MSc,left/liberal,6,1,4,6,7,1,6
4387038,computer,Firefox 90.0,nm_1,21,54,660,TH,FALSE,F,NM,FF,pair,coda,deaf,TRUE,3.9,27.47261099,1,6129,e,609.7158180834749,1637.553975745216,0.8,0.5,No,No,22,male,Other (please specify),first 3 years of my life: Australia; then: Germany,MA/MSc,left/liberal,6,1,4,6,7,1,6
4387038,computer,Firefox 90.0,nm_1,59,55,647,TH,TRUE,TH,NM,TH,pair,onset,thole,TRUE,1.54,30.4873532,2,8529,əʊ,487.9462078116454,945.9301497091374,0.8,0.5,No,No,22,male,Other (please specify),first 3 years of my life: Australia; then: Germany,MA/MSc,left/liberal,6,1,4,6,7,1,6
4387038,computer,Firefox 90.0,nm_1,23,56,572,TH,FALSE,F,NM,FF,pair,coda,oaf,TRUE,2.7,27.98698369,1,6466,əʊ,472.57339295927466,1180.0522494371749,0.8,0.5,No,No,22,male,Other (please specify),first 3 years of my life: Australia; then: Germany,MA/MSc,left/liberal,6,1,4,6,7,1,6
4387038,computer,Firefox 90.0,nm_1,30,57,2936,F,TRUE,F,NM,FF,pair,onset,four,TRUE,5.67,34.37218612,1,9416,ɔ:,452.2742670429064,908.1617544348076,0.8,0.5,No,No,22,male,Other (please specify),first 3 years of my life: Australia; then: Germany,MA/MSc,left/liberal,6,1,4,6,7,1,6
4387038,computer,Firefox 90.0,nm_1,57,58,655,TH,TRUE,TH,NM,TH,pair,onset,thigh,TRUE,3.48,32.62028023,2,4097,aɪ,528.706484934861,1449.172226026241,0.8,0.5,No,No,22,male,Other (please specify),first 3 years of my life: Australia; then: Germany,MA/MSc,left/liberal,6,1,4,6,7,1,6
4387038,computer,Firefox 90.0,nm_1,28,59,738,F,TRUE,F,NM,FF,pair,onset,foal,TRUE,3.15,28.57906601,1,9802,əʊ,452.4908077590797,806.181080281329,0.8,0.5,No,No,22,male,Other (please specify),first 3 years of my life: Australia; then: Germany,MA/MSc,left/liberal,6,1,4,6,7,1,6
4424242,mobile,Chrome 92.0.4515.115,nm_1,32,1,1712,SH,TRUE,SH,NM,SH,pair,coda,leash,FALSE,3.12,34.41750304,0,3351,i:,297.340730292577,2363.507119747921,1,1,No,No,26,female,Other (please specify),Spain,PhD,prefer not to say,6,1,4,5,7,6,4
4424242,mobile,Chrome 92.0.4515.115,nm_1,34,2,673.2999999821186,SH,TRUE,SH,NM,SH,pair,coda,plush,FALSE,2.98,33.82094552,0,4158,ʌ,590.105107191927,1053.0985381501737,1,1,No,No,26,female,Other (please specify),Spain,PhD,prefer not to say,6,1,4,5,7,6,4
4424242,mobile,Chrome 92.0.4515.115,nm_1,45,3,524.8999999761581,S,TRUE,S,NM,SS,pair,coda,puss,FALSE,3.12,38.76511023,0,5439,ʊ,433.7419937400706,1025.6692679574835,1,1,No,No,26,female,Other (please specify),Spain,PhD,prefer not to say,6,1,4,5,7,6,4
4424242,mobile,Chrome 92.0.4515.115,nm_1,37,6,482.699999988079,SH,TRUE,SH,NM,SH,pair,onset,shoal,FALSE,3.04,37.64432653,0,3948,əʊ,500.6312383937159,1031.0206693781254,1,1,No,No,26,female,Other (please specify),Spain,PhD,prefer not to say,6,1,4,5,7,6,4
4424242,mobile,Chrome 92.0.4515.115,nm_1,54,7,1021.5,X,FALSE,TH,NM,TH,pair,coda,ruth,TRUE,4.39,29.52085089,1,3193,u:,356.2940484527308,1278.746062263053,1,1,No,No,26,female,Other (please specify),Spain,PhD,prefer not to say,6,1,4,5,7,6,4
4424242,mobile,Chrome 92.0.4515.115,nm_1,55,8,2261.2000000178814,X,FALSE,TH,NM,TH,pair,coda,wreath,TRUE,3.28,26.84374713,2,6030,i:,349.13545342914,2016.8549233676465,1,1,No,No,26,female,Other (please specify),Spain,PhD,prefer not to say,6,1,4,5,7,6,4
4424242,mobile,Chrome 92.0.4515.115,nm_1,23,12,2604.0999999940395,X,FALSE,F,NM,FF,pair,coda,oaf,TRUE,2.7,27.98698369,1,6466,əʊ,472.57339295927466,1180.0522494371749,1,1,No,No,26,female,Other (please specify),Spain,PhD,prefer not to say,6,1,4,5,7,6,4
4424242,mobile,Chrome 92.0.4515.115,nm_1,47,13,644.8000000119209,S,TRUE,S,NM,SS,pair,onset,sin,FALSE,3.96,43.9163708,0,5970,ɪ,416.70711900247017,1881.87631709883,1,1,No,No,26,female,Other (please specify),Spain,PhD,prefer not to say,6,1,4,5,7,6,4
4424242,mobile,Chrome 92.0.4515.115,nm_1,42,14,1163.7999999821186,S,TRUE,S,NM,SS,pair,coda,lease,FALSE,3.84,39.49037225,0,5490,i:,287.40550444881274,2354.793065190407,1,1,No,No,26,female,Other (please specify),Spain,PhD,prefer not to say,6,1,4,5,7,6,4
4424242,mobile,Chrome 92.0.4515.115,nm_1,53,15,1203.7000000178814,TH,TRUE,TH,NM,TH,pair,coda,oath,TRUE,3.54,28.61263962,1,5905,əʊ,462.9541289738834,1188.000083415647,1,1,No,No,26,female,Other (please specify),Spain,PhD,prefer not to say,6,1,4,5,7,6,4
4424242,mobile,Chrome 92.0.4515.115,nm_1,49,16,829,S,TRUE,S,NM,SS,pair,onset,sought,FALSE,4.13,42.84970627,0,5753,ɔ:,449.13357223033415,1000.69297730879,1,1,No,No,26,female,Other (please specify),Spain,PhD,prefer not to say,6,1,4,5,7,6,4
4424242,mobile,Chrome 92.0.4515.115,nm_1,48,17,415.39999997615814,S,TRUE,S,NM,SS,pair,onset,sore,FALSE,4.06,44.26134749,0,5943,ɔ:,437.5607903939694,1155.5882277347737,1,1,No,No,26,female,Other (please specify),Spain,PhD,prefer not to say,6,1,4,5,7,6,4
4424242,mobile,Chrome 92.0.4515.115,nm_1,58,18,446.09999999403954,TH,TRUE,TH,NM,TH,pair,onset,thin,TRUE,4.48,30.14064943,2,2954,ɪ,424.2859030964207,1971.0932396265157,1,1,No,No,26,female,Other (please specify),Spain,PhD,prefer not to say,6,1,4,5,7,6,4
4424242,mobile,Chrome 92.0.4515.115,nm_1,44,19,2147,X,FALSE,S,NM,SS,pair,coda,plus,FALSE,4.78,36.53544495,0,5201,ʌ,637.2470101127309,1202.1883602585203,1,1,No,No,26,female,Other (please specify),Spain,PhD,prefer not to say,6,1,4,5,7,6,4
4424242,mobile,Chrome 92.0.4515.115,nm_1,38,20,774.4000000059605,SH,TRUE,SH,NM,SH,pair,onset,shore,FALSE,4.12,37.97554534,0,4134,ɔ:,466.6179707694524,1175.1149784517122,1,1,No,No,26,female,Other (please specify),Spain,PhD,prefer not to say,6,1,4,5,7,6,4
4424242,mobile,Chrome 92.0.4515.115,nm_1,46,23,1349.800000011921,S,TRUE,S,NM,SS,pair,onset,sigh,FALSE,3.66,41.37901249,0,5979,aɪ,509.30414504772887,1388.106480031303,1,1,No,No,26,female,Other (please specify),Spain,PhD,prefer not to say,6,1,4,5,7,6,4
4424242,mobile,Chrome 92.0.4515.115,nm_1,57,24,454.2999999821186,TH,TRUE,TH,NM,TH,pair,onset,thigh,TRUE,3.48,32.62028023,2,4097,aɪ,528.706484934861,1449.172226026241,1,1,No,No,26,female,Other (please specify),Spain,PhD,prefer not to say,6,1,4,5,7,6,4
4424242,mobile,Chrome 92.0.4515.115,nm_1,51,26,1123.5999999940395,TH,TRUE,TH,NM,TH,pair,coda,death,TRUE,5.14,25.17853656,2,4331,ɛ,625.846855705086,1657.2325794868837,1,1,No,No,26,female,Other (please specify),Spain,PhD,prefer not to say,6,1,4,5,7,6,4
4424242,mobile,Chrome 92.0.4515.115,nm_1,41,28,1158.2999999821186,S,TRUE,S,NM,SS,pair,coda,ass,FALSE,4.09,39.03014753,0,5034,a,718.4349765510347,1476.9724719998735,1,1,No,No,26,female,Other (please specify),Spain,PhD,prefer not to say,6,1,4,5,7,6,4
4424242,mobile,Chrome 92.0.4515.115,nm_1,56,30,423.800000011921,TH,TRUE,TH,NM,TH,pair,onset,thaw,TRUE,3.27,28.96203439,2,8045,ɔ:,435.1453476697292,808.8805808693594,1,1,No,No,26,female,Other (please specify),Spain,PhD,prefer not to say,6,1,4,5,7,6,4
4424242,mobile,Chrome 92.0.4515.115,nm_1,39,31,462.5,SH,TRUE,SH,NM,SH,pair,onset,short,FALSE,5.13,37.41534288,0,4620,ɔ:,489.9511213017793,1540.7832085298107,1,1,No,No,26,female,Other (please specify),Spain,PhD,prefer not to say,6,1,4,5,7,6,4
4424242,mobile,Chrome 92.0.4515.115,nm_1,26,32,873,F,TRUE,F,NM,FF,pair,onset,fie,TRUE,2.47,30.77713035,1,8472,aɪ,498.69053418185376,1402.6273181156027,1,1,No,No,26,female,Other (please specify),Spain,PhD,prefer not to say,6,1,4,5,7,6,4
4424242,mobile,Chrome 92.0.4515.115,nm_1,52,33,2001.9000000059605,X,FALSE,TH,NM,TH,pair,coda,loath,TRUE,2.69,27.1697819,1,4313,əʊ,449.7029396444894,1115.2451376787778,1,1,No,No,26,female,Other (please specify),Spain,PhD,prefer not to say,6,1,4,5,7,6,4
4424242,mobile,Chrome 92.0.4515.115,nm_1,33,37,853.4000000059605,SH,TRUE,SH,NM,SH,pair,coda,mesh,FALSE,3.27,33.56798697,0,3601,ɛ,558.9508597606649,1699.9650124253706,1,1,No,No,26,female,Other (please specify),Spain,PhD,prefer not to say,6,1,4,5,7,6,4
4424242,mobile,Chrome 92.0.4515.115,nm_1,50,38,483,S,TRUE,S,NM,SS,pair,onset,soul,FALSE,4.53,40.65935899,0,5973,əʊ,488.7883811553887,837.4153882714268,1,1,No,No,26,female,Other (please specify),Spain,PhD,prefer not to say,6,1,4,5,7,6,4
4424242,mobile,Chrome 92.0.4515.115,nm_1,43,39,1241.300000011921,S,TRUE,S,NM,SS,pair,coda,mess,FALSE,4.79,36.17035307,0,5457,ɛ,628.444388543489,1653.820775737603,1,1,No,No,26,female,Other (please specify),Spain,PhD,prefer not to say,6,1,4,5,7,6,4
4424242,mobile,Chrome 92.0.4515.115,nm_1,36,40,396.199999988079,SH,TRUE,SH,NM,SH,pair,onset,shin,FALSE,3.3,38.63219732,0,3542,ɪ,428.0573131118717,2012.7319368425408,1,1,No,No,26,female,Other (please specify),Spain,PhD,prefer not to say,6,1,4,5,7,6,4
4424242,mobile,Chrome 92.0.4515.115,nm_1,35,42,1233.5999999940395,X,FALSE,SH,NM,SH,pair,coda,push,FALSE,4.92,34.83622897,0,3617,ʊ,444.06320867077545,1052.8060205473794,1,1,No,No,26,female,Other (please specify),Spain,PhD,prefer not to say,6,1,4,5,7,6,4
4424242,mobile,Chrome 92.0.4515.115,nm_1,59,43,752.5999999940395,TH,TRUE,TH,NM,TH,pair,onset,thole,TRUE,1.54,30.4873532,2,8529,əʊ,487.9462078116454,945.9301497091374,1,1,No,No,26,female,Other (please specify),Spain,PhD,prefer not to say,6,1,4,5,7,6,4
4424242,mobile,Chrome 92.0.4515.115,nm_1,22,44,798.9000000059605,X,FALSE,F,NM,FF,pair,coda,loaf,TRUE,3.77,29.03169428,1,6083,əʊ,450.0518968001741,1137.85837798808,1,1,No,No,26,female,Other (please specify),Spain,PhD,prefer not to say,6,1,4,5,7,6,4
4424242,mobile,Chrome 92.0.4515.115,nm_1,40,46,860.1000000238419,SH,TRUE,SH,NM,SH,pair,onset,shy,FALSE,4.27,39.50228141,0,3622,ʌɪ,633.998539992286,1682.0075151606634,1,1,No,No,26,female,Other (please specify),Spain,PhD,prefer not to say,6,1,4,5,7,6,4
4424242,mobile,Chrome 92.0.4515.115,nm_1,24,47,834.2000000178814,S,FALSE,F,NM,FF,pair,coda,reef,TRUE,3.79,29.65935414,1,6900,i:,350.4359996049278,1973.3230597501824,1,1,No,No,26,female,Other (please specify),Spain,PhD,prefer not to say,6,1,4,5,7,6,4
4424242,mobile,Chrome 92.0.4515.115,nm_1,27,48,501.800000011921,F,TRUE,F,NM,FF,pair,onset,fin,TRUE,3.59,31.84145761,1,5117,ɪ,441.4452841620668,1945.6091687046203,1,1,No,No,26,female,Other (please specify),Spain,PhD,prefer not to say,6,1,4,5,7,6,4
4424242,mobile,Chrome 92.0.4515.115,nm_1,60,49,540.4000000059605,TH,TRUE,TH,NM,TH,pair,onset,thought,TRUE,5.84,30.03527609,2,7602,ɔ:,454.5535158131208,1126.436300020404,1,1,No,No,26,female,Other (please specify),Spain,PhD,prefer not to say,6,1,4,5,7,6,4
4424242,mobile,Chrome 92.0.4515.115,nm_1,28,50,648.5,F,TRUE,F,NM,FF,pair,onset,foal,TRUE,3.15,28.57906601,1,9802,əʊ,452.4908077590797,806.181080281329,1,1,No,No,26,female,Other (please specify),Spain,PhD,prefer not to say,6,1,4,5,7,6,4
4424242,mobile,Chrome 92.0.4515.115,nm_1,21,51,1042.4000000059605,TH,FALSE,F,NM,FF,pair,coda,deaf,TRUE,3.9,27.47261099,1,6129,e,609.7158180834749,1637.553975745216,1,1,No,No,26,female,Other (please specify),Spain,PhD,prefer not to say,6,1,4,5,7,6,4
4424242,mobile,Chrome 92.0.4515.115,nm_1,30,54,902.1999999880792,X,FALSE,F,NM,FF,pair,onset,four,TRUE,5.67,34.37218612,1,9416,ɔ:,452.2742670429064,908.1617544348076,1,1,No,No,26,female,Other (please specify),Spain,PhD,prefer not to say,6,1,4,5,7,6,4
4424242,mobile,Chrome 92.0.4515.115,nm_1,31,55,757.5,SH,TRUE,SH,NM,SH,pair,coda,ash,FALSE,4.19,35.42637673,0,3533,a,614.3227347989738,1500.7920108495807,1,1,No,No,26,female,Other (please specify),Spain,PhD,prefer not to say,6,1,4,5,7,6,4
4424242,mobile,Chrome 92.0.4515.115,nm_1,25,57,4414,F,TRUE,F,NM,FF,pair,coda,roof,TRUE,4.72,32.55925052,1,5188,u:,441.0453789240863,1379.6535606635946,1,1,No,No,26,female,Other (please specify),Spain,PhD,prefer not to say,6,1,4,5,7,6,4
4424242,mobile,Chrome 92.0.4515.115,nm_1,29,59,1768,TH,FALSE,F,NM,FF,pair,onset,fought,TRUE,4.47,34.6954365,1,8605,ɔ:,448.2673753038556,861.6077780914028,1,1,No,No,26,female,Other (please specify),Spain,PhD,prefer not to say,6,1,4,5,7,6,4
4425379,computer,Chrome 92.0.4515.131,nm_1,59,1,1402.5999999940395,TH,TRUE,TH,NM,TH,pair,onset,thole,TRUE,1.54,30.4873532,2,8529,əʊ,487.9462078116454,945.9301497091374,0.2,1,No,No,55,female,Other (please specify),Armenia,MA/MSc,prefer not to say,7,1,7,4,5,2,6
4425379,computer,Chrome 92.0.4515.131,nm_1,50,3,955.9000000059604,S,TRUE,S,NM,SS,pair,onset,soul,FALSE,4.53,40.65935899,0,5973,əʊ,488.7883811553887,837.4153882714268,0.2,1,No,No,55,female,Other (please specify),Armenia,MA/MSc,prefer not to say,7,1,7,4,5,2,6
4425379,computer,Chrome 92.0.4515.131,nm_1,25,4,1176.9000000059605,F,TRUE,F,NM,FF,pair,coda,roof,TRUE,4.72,32.55925052,1,5188,u:,441.0453789240863,1379.6535606635946,0.2,1,No,No,55,female,Other (please specify),Armenia,MA/MSc,prefer not to say,7,1,7,4,5,2,6
4425379,computer,Chrome 92.0.4515.131,nm_1,29,7,2054.2000000178814,F,TRUE,F,NM,FF,pair,onset,fought,TRUE,4.47,34.6954365,1,8605,ɔ:,448.2673753038556,861.6077780914028,0.2,1,No,No,55,female,Other (please specify),Armenia,MA/MSc,prefer not to say,7,1,7,4,5,2,6
4425379,computer,Chrome 92.0.4515.131,nm_1,52,8,1083,TH,TRUE,TH,NM,TH,pair,coda,loath,TRUE,2.69,27.1697819,1,4313,əʊ,449.7029396444894,1115.2451376787778,0.2,1,No,No,55,female,Other (please specify),Armenia,MA/MSc,prefer not to say,7,1,7,4,5,2,6
4425379,computer,Chrome 92.0.4515.131,nm_1,51,9,705,TH,TRUE,TH,NM,TH,pair,coda,death,TRUE,5.14,25.17853656,2,4331,ɛ,625.846855705086,1657.2325794868837,0.2,1,No,No,55,female,Other (please specify),Armenia,MA/MSc,prefer not to say,7,1,7,4,5,2,6
4425379,computer,Chrome 92.0.4515.131,nm_1,27,10,813.8000000119209,TH,FALSE,F,NM,FF,pair,onset,fin,TRUE,3.59,31.84145761,1,5117,ɪ,441.4452841620668,1945.6091687046203,0.2,1,No,No,55,female,Other (please specify),Armenia,MA/MSc,prefer not to say,7,1,7,4,5,2,6
4425379,computer,Chrome 92.0.4515.131,nm_1,36,11,911.9000000059604,SH,TRUE,SH,NM,SH,pair,onset,shin,FALSE,3.3,38.63219732,0,3542,ɪ,428.0573131118717,2012.7319368425408,0.2,1,No,No,55,female,Other (please specify),Armenia,MA/MSc,prefer not to say,7,1,7,4,5,2,6
4425379,computer,Chrome 92.0.4515.131,nm_1,35,13,1397.300000011921,SH,TRUE,SH,NM,SH,pair,coda,push,FALSE,4.92,34.83622897,0,3617,ʊ,444.06320867077545,1052.8060205473794,0.2,1,No,No,55,female,Other (please specify),Armenia,MA/MSc,prefer not to say,7,1,7,4,5,2,6
4425379,computer,Chrome 92.0.4515.131,nm_1,21,14,1027.2000000178814,TH,FALSE,F,NM,FF,pair,coda,deaf,TRUE,3.9,27.47261099,1,6129,e,609.7158180834749,1637.553975745216,0.2,1,No,No,55,female,Other (please specify),Armenia,MA/MSc,prefer not to say,7,1,7,4,5,2,6
4425379,computer,Chrome 92.0.4515.131,nm_1,32,16,855.5,SH,TRUE,SH,NM,SH,pair,coda,leash,FALSE,3.12,34.41750304,0,3351,i:,297.340730292577,2363.507119747921,0.2,1,No,No,55,female,Other (please specify),Armenia,MA/MSc,prefer not to say,7,1,7,4,5,2,6
4425379,computer,Chrome 92.0.4515.131,nm_1,57,17,879.5,TH,TRUE,TH,NM,TH,pair,onset,thigh,TRUE,3.48,32.62028023,2,4097,aɪ,528.706484934861,1449.172226026241,0.2,1,No,No,55,female,Other (please specify),Armenia,MA/MSc,prefer not to say,7,1,7,4,5,2,6
4425379,computer,Chrome 92.0.4515.131,nm_1,39,20,1352.800000011921,SH,TRUE,SH,NM,SH,pair,onset,short,FALSE,5.13,37.41534288,0,4620,ɔ:,489.9511213017793,1540.7832085298107,0.2,1,No,No,55,female,Other (please specify),Armenia,MA/MSc,prefer not to say,7,1,7,4,5,2,6
4425379,computer,Chrome 92.0.4515.131,nm_1,45,21,888.6999999880791,S,TRUE,S,NM,SS,pair,coda,puss,FALSE,3.12,38.76511023,0,5439,ʊ,433.7419937400706,1025.6692679574835,0.2,1,No,No,55,female,Other (please specify),Armenia,MA/MSc,prefer not to say,7,1,7,4,5,2,6
4425379,computer,Chrome 92.0.4515.131,nm_1,28,22,1107.800000011921,F,TRUE,F,NM,FF,pair,onset,foal,TRUE,3.15,28.57906601,1,9802,əʊ,452.4908077590797,806.181080281329,0.2,1,No,No,55,female,Other (please specify),Armenia,MA/MSc,prefer not to say,7,1,7,4,5,2,6
4425379,computer,Chrome 92.0.4515.131,nm_1,24,23,1377.300000011921,F,TRUE,F,NM,FF,pair,coda,reef,TRUE,3.79,29.65935414,1,6900,i:,350.4359996049278,1973.3230597501824,0.2,1,No,No,55,female,Other (please specify),Armenia,MA/MSc,prefer not to say,7,1,7,4,5,2,6
4425379,computer,Chrome 92.0.4515.131,nm_1,54,24,947.9000000059604,TH,TRUE,TH,NM,TH,pair,coda,ruth,TRUE,4.39,29.52085089,1,3193,u:,356.2940484527308,1278.746062263053,0.2,1,No,No,55,female,Other (please specify),Armenia,MA/MSc,prefer not to say,7,1,7,4,5,2,6
4425379,computer,Chrome 92.0.4515.131,nm_1,48,28,1020.0999999940396,S,TRUE,S,NM,SS,pair,onset,sore,FALSE,4.06,44.26134749,0,5943,ɔ:,437.5607903939694,1155.5882277347737,0.2,1,No,No,55,female,Other (please specify),Armenia,MA/MSc,prefer not to say,7,1,7,4,5,2,6
4425379,computer,Chrome 92.0.4515.131,nm_1,31,29,1603.7000000178814,SH,TRUE,SH,NM,SH,pair,coda,ash,FALSE,4.19,35.42637673,0,3533,a,614.3227347989738,1500.7920108495807,0.2,1,No,No,55,female,Other (please specify),Armenia,MA/MSc,prefer not to say,7,1,7,4,5,2,6
4425379,computer,Chrome 92.0.4515.131,nm_1,58,31,968,TH,TRUE,TH,NM,TH,pair,onset,thin,TRUE,4.48,30.14064943,2,2954,ɪ,424.2859030964207,1971.0932396265157,0.2,1,No,No,55,female,Other (please specify),Armenia,MA/MSc,prefer not to say,7,1,7,4,5,2,6
4425379,computer,Chrome 92.0.4515.131,nm_1,43,32,853.7999999821186,S,TRUE,S,NM,SS,pair,coda,mess,FALSE,4.79,36.17035307,0,5457,ɛ,628.444388543489,1653.820775737603,0.2,1,No,No,55,female,Other (please specify),Armenia,MA/MSc,prefer not to say,7,1,7,4,5,2,6
4425379,computer,Chrome 92.0.4515.131,nm_1,38,34,1573.300000011921,SH,TRUE,SH,NM,SH,pair,onset,shore,FALSE,4.12,37.97554534,0,4134,ɔ:,466.6179707694524,1175.1149784517122,0.2,1,No,No,55,female,Other (please specify),Armenia,MA/MSc,prefer not to say,7,1,7,4,5,2,6
4425379,computer,Chrome 92.0.4515.131,nm_1,41,35,981.2000000178814,S,TRUE,S,NM,SS,pair,coda,ass,FALSE,4.09,39.03014753,0,5034,a,718.4349765510347,1476.9724719998735,0.2,1,No,No,55,female,Other (please specify),Armenia,MA/MSc,prefer not to say,7,1,7,4,5,2,6
4425379,computer,Chrome 92.0.4515.131,nm_1,46,36,1492.5,S,TRUE,S,NM,SS,pair,onset,sigh,FALSE,3.66,41.37901249,0,5979,aɪ,509.30414504772887,1388.106480031303,0.2,1,No,No,55,female,Other (please specify),Armenia,MA/MSc,prefer not to say,7,1,7,4,5,2,6
4425379,computer,Chrome 92.0.4515.131,nm_1,47,37,1040.7000000178814,S,TRUE,S,NM,SS,pair,onset,sin,FALSE,3.96,43.9163708,0,5970,ɪ,416.70711900247017,1881.87631709883,0.2,1,No,No,55,female,Other (please specify),Armenia,MA/MSc,prefer not to say,7,1,7,4,5,2,6
4425379,computer,Chrome 92.0.4515.131,nm_1,56,38,960.5,TH,TRUE,TH,NM,TH,pair,onset,thaw,TRUE,3.27,28.96203439,2,8045,ɔ:,435.1453476697292,808.8805808693594,0.2,1,No,No,55,female,Other (please specify),Armenia,MA/MSc,prefer not to say,7,1,7,4,5,2,6
4425379,computer,Chrome 92.0.4515.131,nm_1,42,40,964.5,S,TRUE,S,NM,SS,pair,coda,lease,FALSE,3.84,39.49037225,0,5490,i:,287.40550444881274,2354.793065190407,0.2,1,No,No,55,female,Other (please specify),Armenia,MA/MSc,prefer not to say,7,1,7,4,5,2,6
4425379,computer,Chrome 92.0.4515.131,nm_1,44,42,788.7000000178814,S,TRUE,S,NM,SS,pair,coda,plus,FALSE,4.78,36.53544495,0,5201,ʌ,637.2470101127309,1202.1883602585203,0.2,1,No,No,55,female,Other (please specify),Armenia,MA/MSc,prefer not to say,7,1,7,4,5,2,6
4425379,computer,Chrome 92.0.4515.131,nm_1,30,43,941.8000000119208,F,TRUE,F,NM,FF,pair,onset,four,TRUE,5.67,34.37218612,1,9416,ɔ:,452.2742670429064,908.1617544348076,0.2,1,No,No,55,female,Other (please specify),Armenia,MA/MSc,prefer not to say,7,1,7,4,5,2,6
4425379,computer,Chrome 92.0.4515.131,nm_1,55,44,648.1000000238419,TH,TRUE,TH,NM,TH,pair,coda,wreath,TRUE,3.28,26.84374713,2,6030,i:,349.13545342914,2016.8549233676465,0.2,1,No,No,55,female,Other (please specify),Armenia,MA/MSc,prefer not to say,7,1,7,4,5,2,6
4425379,computer,Chrome 92.0.4515.131,nm_1,37,45,820.7999999821186,SH,TRUE,SH,NM,SH,pair,onset,shoal,FALSE,3.04,37.64432653,0,3948,əʊ,500.6312383937159,1031.0206693781254,0.2,1,No,No,55,female,Other (please specify),Armenia,MA/MSc,prefer not to say,7,1,7,4,5,2,6
4425379,computer,Chrome 92.0.4515.131,nm_1,26,48,929.2999999821186,F,TRUE,F,NM,FF,pair,onset,fie,TRUE,2.47,30.77713035,1,8472,aɪ,498.69053418185376,1402.6273181156027,0.2,1,No,No,55,female,Other (please specify),Armenia,MA/MSc,prefer not to say,7,1,7,4,5,2,6
4425379,computer,Chrome 92.0.4515.131,nm_1,40,50,812.7999999821186,SH,TRUE,SH,NM,SH,pair,onset,shy,FALSE,4.27,39.50228141,0,3622,ʌɪ,633.998539992286,1682.0075151606634,0.2,1,No,No,55,female,Other (please specify),Armenia,MA/MSc,prefer not to say,7,1,7,4,5,2,6
4425379,computer,Chrome 92.0.4515.131,nm_1,22,52,1805,F,TRUE,F,NM,FF,pair,coda,loaf,TRUE,3.77,29.03169428,1,6083,əʊ,450.0518968001741,1137.85837798808,0.2,1,No,No,55,female,Other (please specify),Armenia,MA/MSc,prefer not to say,7,1,7,4,5,2,6
4425379,computer,Chrome 92.0.4515.131,nm_1,33,53,943.3000000119208,SH,TRUE,SH,NM,SH,pair,coda,mesh,FALSE,3.27,33.56798697,0,3601,ɛ,558.9508597606649,1699.9650124253706,0.2,1,No,No,55,female,Other (please specify),Armenia,MA/MSc,prefer not to say,7,1,7,4,5,2,6
4425379,computer,Chrome 92.0.4515.131,nm_1,60,54,1030,TH,TRUE,TH,NM,TH,pair,onset,thought,TRUE,5.84,30.03527609,2,7602,ɔ:,454.5535158131208,1126.436300020404,0.2,1,No,No,55,female,Other (please specify),Armenia,MA/MSc,prefer not to say,7,1,7,4,5,2,6
4425379,computer,Chrome 92.0.4515.131,nm_1,23,55,1660.199999988079,F,TRUE,F,NM,FF,pair,coda,oaf,TRUE,2.7,27.98698369,1,6466,əʊ,472.57339295927466,1180.0522494371749,0.2,1,No,No,55,female,Other (please specify),Armenia,MA/MSc,prefer not to say,7,1,7,4,5,2,6
4425379,computer,Chrome 92.0.4515.131,nm_1,49,57,865.4000000059605,S,TRUE,S,NM,SS,pair,onset,sought,FALSE,4.13,42.84970627,0,5753,ɔ:,449.13357223033415,1000.69297730879,0.2,1,No,No,55,female,Other (please specify),Armenia,MA/MSc,prefer not to say,7,1,7,4,5,2,6
4425379,computer,Chrome 92.0.4515.131,nm_1,34,59,872.9000000059605,SH,TRUE,SH,NM,SH,pair,coda,plush,FALSE,2.98,33.82094552,0,4158,ʌ,590.105107191927,1053.0985381501737,0.2,1,No,No,55,female,Other (please specify),Armenia,MA/MSc,prefer not to say,7,1,7,4,5,2,6
4425379,computer,Chrome 92.0.4515.131,nm_1,53,60,1030.5,TH,TRUE,TH,NM,TH,pair,coda,oath,TRUE,3.54,28.61263962,1,5905,əʊ,462.9541289738834,1188.000083415647,0.2,1,No,No,55,female,Other (please specify),Armenia,MA/MSc,prefer not to say,7,1,7,4,5,2,6
4429980,computer,Edge 92.0.902.62,nm_1,29,2,1815.0999999046328,F,TRUE,F,NM,FF,pair,onset,fought,TRUE,4.47,34.6954365,1,8605,ɔ:,448.2673753038556,861.6077780914028,0.4,1,No,No,24,female,Other (please specify),China,BA/BSc,prefer not to say,7,4,3,7,7,1,5
4429980,computer,Edge 92.0.902.62,nm_1,36,3,1212.9000000953674,SH,TRUE,SH,NM,SH,pair,onset,shin,FALSE,3.3,38.63219732,0,3542,ɪ,428.0573131118717,2012.7319368425408,0.4,1,No,No,24,female,Other (please specify),China,BA/BSc,prefer not to say,7,4,3,7,7,1,5
4429980,computer,Edge 92.0.902.62,nm_1,46,5,746.7000002861023,S,TRUE,S,NM,SS,pair,onset,sigh,FALSE,3.66,41.37901249,0,5979,aɪ,509.30414504772887,1388.106480031303,0.4,1,No,No,24,female,Other (please specify),China,BA/BSc,prefer not to say,7,4,3,7,7,1,5
4429980,computer,Edge 92.0.902.62,nm_1,43,6,802.0999999046326,S,TRUE,S,NM,SS,pair,coda,mess,FALSE,4.79,36.17035307,0,5457,ɛ,628.444388543489,1653.820775737603,0.4,1,No,No,24,female,Other (please specify),China,BA/BSc,prefer not to say,7,4,3,7,7,1,5
4429980,computer,Edge 92.0.902.62,nm_1,53,7,882.0999999046326,TH,TRUE,TH,NM,TH,pair,coda,oath,TRUE,3.54,28.61263962,1,5905,əʊ,462.9541289738834,1188.000083415647,0.4,1,No,No,24,female,Other (please specify),China,BA/BSc,prefer not to say,7,4,3,7,7,1,5
4429980,computer,Edge 92.0.902.62,nm_1,31,8,1180.4000000953674,SH,TRUE,SH,NM,SH,pair,coda,ash,FALSE,4.19,35.42637673,0,3533,a,614.3227347989738,1500.7920108495807,0.4,1,No,No,24,female,Other (please specify),China,BA/BSc,prefer not to say,7,4,3,7,7,1,5
4429980,computer,Edge 92.0.902.62,nm_1,50,10,1574.1999998092651,S,TRUE,S,NM,SS,pair,onset,soul,FALSE,4.53,40.65935899,0,5973,əʊ,488.7883811553887,837.4153882714268,0.4,1,No,No,24,female,Other (please specify),China,BA/BSc,prefer not to say,7,4,3,7,7,1,5
4429980,computer,Edge 92.0.902.62,nm_1,27,11,2358.699999809265,TH,FALSE,F,NM,FF,pair,onset,fin,TRUE,3.59,31.84145761,1,5117,ɪ,441.4452841620668,1945.6091687046203,0.4,1,No,No,24,female,Other (please specify),China,BA/BSc,prefer not to say,7,4,3,7,7,1,5
4429980,computer,Edge 92.0.902.62,nm_1,35,12,558.6999998092651,SH,TRUE,SH,NM,SH,pair,coda,push,FALSE,4.92,34.83622897,0,3617,ʊ,444.06320867077545,1052.8060205473794,0.4,1,No,No,24,female,Other (please specify),China,BA/BSc,prefer not to say,7,4,3,7,7,1,5
4429980,computer,Edge 92.0.902.62,nm_1,49,14,946.9000000953674,S,TRUE,S,NM,SS,pair,onset,sought,FALSE,4.13,42.84970627,0,5753,ɔ:,449.13357223033415,1000.69297730879,0.4,1,No,No,24,female,Other (please specify),China,BA/BSc,prefer not to say,7,4,3,7,7,1,5
4429980,computer,Edge 92.0.902.62,nm_1,26,15,1746.6000003814695,F,TRUE,F,NM,FF,pair,onset,fie,TRUE,2.47,30.77713035,1,8472,aɪ,498.69053418185376,1402.6273181156027,0.4,1,No,No,24,female,Other (please specify),China,BA/BSc,prefer not to say,7,4,3,7,7,1,5
4429980,computer,Edge 92.0.902.62,nm_1,28,17,2008.3000001907349,TH,FALSE,F,NM,FF,pair,onset,foal,TRUE,3.15,28.57906601,1,9802,əʊ,452.4908077590797,806.181080281329,0.4,1,No,No,24,female,Other (please specify),China,BA/BSc,prefer not to say,7,4,3,7,7,1,5
4429980,computer,Edge 92.0.902.62,nm_1,25,20,1610.9000000953674,TH,FALSE,F,NM,FF,pair,coda,roof,TRUE,4.72,32.55925052,1,5188,u:,441.0453789240863,1379.6535606635946,0.4,1,No,No,24,female,Other (please specify),China,BA/BSc,prefer not to say,7,4,3,7,7,1,5
4429980,computer,Edge 92.0.902.62,nm_1,56,21,1210.2999997138977,TH,TRUE,TH,NM,TH,pair,onset,thaw,TRUE,3.27,28.96203439,2,8045,ɔ:,435.1453476697292,808.8805808693594,0.4,1,No,No,24,female,Other (please specify),China,BA/BSc,prefer not to say,7,4,3,7,7,1,5
4429980,computer,Edge 92.0.902.62,nm_1,39,24,886.7999997138977,SH,TRUE,SH,NM,SH,pair,onset,short,FALSE,5.13,37.41534288,0,4620,ɔ:,489.9511213017793,1540.7832085298107,0.4,1,No,No,24,female,Other (please specify),China,BA/BSc,prefer not to say,7,4,3,7,7,1,5
4429980,computer,Edge 92.0.902.62,nm_1,52,25,1902.9000000953672,TH,TRUE,TH,NM,TH,pair,coda,loath,TRUE,2.69,27.1697819,1,4313,əʊ,449.7029396444894,1115.2451376787778,0.4,1,No,No,24,female,Other (please specify),China,BA/BSc,prefer not to say,7,4,3,7,7,1,5
4429980,computer,Edge 92.0.902.62,nm_1,55,26,477.90000009536743,TH,TRUE,TH,NM,TH,pair,coda,wreath,TRUE,3.28,26.84374713,2,6030,i:,349.13545342914,2016.8549233676465,0.4,1,No,No,24,female,Other (please specify),China,BA/BSc,prefer not to say,7,4,3,7,7,1,5
4429980,computer,Edge 92.0.902.62,nm_1,57,27,640,TH,TRUE,TH,NM,TH,pair,onset,thigh,TRUE,3.48,32.62028023,2,4097,aɪ,528.706484934861,1449.172226026241,0.4,1,No,No,24,female,Other (please specify),China,BA/BSc,prefer not to say,7,4,3,7,7,1,5
4429980,computer,Edge 92.0.902.62,nm_1,24,28,448.80000019073486,TH,FALSE,F,NM,FF,pair,coda,reef,TRUE,3.79,29.65935414,1,6900,i:,350.4359996049278,1973.3230597501824,0.4,1,No,No,24,female,Other (please specify),China,BA/BSc,prefer not to say,7,4,3,7,7,1,5
4429980,computer,Edge 92.0.902.62,nm_1,33,31,603.6999998092651,SH,TRUE,SH,NM,SH,pair,coda,mesh,FALSE,3.27,33.56798697,0,3601,ɛ,558.9508597606649,1699.9650124253706,0.4,1,No,No,24,female,Other (please specify),China,BA/BSc,prefer not to say,7,4,3,7,7,1,5
4429980,computer,Edge 92.0.902.62,nm_1,51,32,855.7999997138977,TH,TRUE,TH,NM,TH,pair,coda,death,TRUE,5.14,25.17853656,2,4331,ɛ,625.846855705086,1657.2325794868837,0.4,1,No,No,24,female,Other (please specify),China,BA/BSc,prefer not to say,7,4,3,7,7,1,5
4429980,computer,Edge 92.0.902.62,nm_1,44,36,1519.0999999046326,S,TRUE,S,NM,SS,pair,coda,plus,FALSE,4.78,36.53544495,0,5201,ʌ,637.2470101127309,1202.1883602585203,0.4,1,No,No,24,female,Other (please specify),China,BA/BSc,prefer not to say,7,4,3,7,7,1,5
4429980,computer,Edge 92.0.902.62,nm_1,34,37,652.2000002861023,SH,TRUE,SH,NM,SH,pair,coda,plush,FALSE,2.98,33.82094552,0,4158,ʌ,590.105107191927,1053.0985381501737,0.4,1,No,No,24,female,Other (please specify),China,BA/BSc,prefer not to say,7,4,3,7,7,1,5
4429980,computer,Edge 92.0.902.62,nm_1,21,38,818.3000001907349,TH,FALSE,F,NM,FF,pair,coda,deaf,TRUE,3.9,27.47261099,1,6129,e,609.7158180834749,1637.553975745216,0.4,1,No,No,24,female,Other (please specify),China,BA/BSc,prefer not to say,7,4,3,7,7,1,5
4429980,computer,Edge 92.0.902.62,nm_1,32,39,420.30000019073486,TH,FALSE,SH,NM,SH,pair,coda,leash,FALSE,3.12,34.41750304,0,3351,i:,297.340730292577,2363.507119747921,0.4,1,No,No,24,female,Other (please specify),China,BA/BSc,prefer not to say,7,4,3,7,7,1,5
4429980,computer,Edge 92.0.902.62,nm_1,37,40,754.3000001907349,SH,TRUE,SH,NM,SH,pair,onset,shoal,FALSE,3.04,37.64432653,0,3948,əʊ,500.6312383937159,1031.0206693781254,0.4,1,No,No,24,female,Other (please specify),China,BA/BSc,prefer not to say,7,4,3,7,7,1,5
4429980,computer,Edge 92.0.902.62,nm_1,60,41,484.5,TH,TRUE,TH,NM,TH,pair,onset,thought,TRUE,5.84,30.03527609,2,7602,ɔ:,454.5535158131208,1126.436300020404,0.4,1,No,No,24,female,Other (please specify),China,BA/BSc,prefer not to say,7,4,3,7,7,1,5
4429980,computer,Edge 92.0.902.62,nm_1,47,42,756.6000003814697,S,TRUE,S,NM,SS,pair,onset,sin,FALSE,3.96,43.9163708,0,5970,ɪ,416.70711900247017,1881.87631709883,0.4,1,No,No,24,female,Other (please specify),China,BA/BSc,prefer not to say,7,4,3,7,7,1,5
4429980,computer,Edge 92.0.902.62,nm_1,41,43,420.5,S,TRUE,S,NM,SS,pair,coda,ass,FALSE,4.09,39.03014753,0,5034,a,718.4349765510347,1476.9724719998735,0.4,1,No,No,24,female,Other (please specify),China,BA/BSc,prefer not to say,7,4,3,7,7,1,5
4429980,computer,Edge 92.0.902.62,nm_1,40,44,387.19999980926514,SH,TRUE,SH,NM,SH,pair,onset,shy,FALSE,4.27,39.50228141,0,3622,ʌɪ,633.998539992286,1682.0075151606634,0.4,1,No,No,24,female,Other (please specify),China,BA/BSc,prefer not to say,7,4,3,7,7,1,5
4429980,computer,Edge 92.0.902.62,nm_1,48,45,1057.3999996185305,S,TRUE,S,NM,SS,pair,onset,sore,FALSE,4.06,44.26134749,0,5943,ɔ:,437.5607903939694,1155.5882277347737,0.4,1,No,No,24,female,Other (please specify),China,BA/BSc,prefer not to say,7,4,3,7,7,1,5
4429980,computer,Edge 92.0.902.62,nm_1,58,47,524,TH,TRUE,TH,NM,TH,pair,onset,thin,TRUE,4.48,30.14064943,2,2954,ɪ,424.2859030964207,1971.0932396265157,0.4,1,No,No,24,female,Other (please specify),China,BA/BSc,prefer not to say,7,4,3,7,7,1,5
4429980,computer,Edge 92.0.902.62,nm_1,30,51,722.0999999046326,TH,FALSE,F,NM,FF,pair,onset,four,TRUE,5.67,34.37218612,1,9416,ɔ:,452.2742670429064,908.1617544348076,0.4,1,No,No,24,female,Other (please specify),China,BA/BSc,prefer not to say,7,4,3,7,7,1,5
4429980,computer,Edge 92.0.902.62,nm_1,38,52,1831.8000001907349,SH,TRUE,SH,NM,SH,pair,onset,shore,FALSE,4.12,37.97554534,0,4134,ɔ:,466.6179707694524,1175.1149784517122,0.4,1,No,No,24,female,Other (please specify),China,BA/BSc,prefer not to say,7,4,3,7,7,1,5
4429980,computer,Edge 92.0.902.62,nm_1,54,53,1246.7999997138977,TH,TRUE,TH,NM,TH,pair,coda,ruth,TRUE,4.39,29.52085089,1,3193,u:,356.2940484527308,1278.746062263053,0.4,1,No,No,24,female,Other (please specify),China,BA/BSc,prefer not to say,7,4,3,7,7,1,5
4429980,computer,Edge 92.0.902.62,nm_1,23,56,752.8000001907349,TH,FALSE,F,NM,FF,pair,coda,oaf,TRUE,2.7,27.98698369,1,6466,əʊ,472.57339295927466,1180.0522494371749,0.4,1,No,No,24,female,Other (please specify),China,BA/BSc,prefer not to say,7,4,3,7,7,1,5
4429980,computer,Edge 92.0.902.62,nm_1,45,57,398.30000019073486,S,TRUE,S,NM,SS,pair,coda,puss,FALSE,3.12,38.76511023,0,5439,ʊ,433.7419937400706,1025.6692679574835,0.4,1,No,No,24,female,Other (please specify),China,BA/BSc,prefer not to say,7,4,3,7,7,1,5
4429980,computer,Edge 92.0.902.62,nm_1,22,58,1530.0999999046326,TH,FALSE,F,NM,FF,pair,coda,loaf,TRUE,3.77,29.03169428,1,6083,əʊ,450.0518968001741,1137.85837798808,0.4,1,No,No,24,female,Other (please specify),China,BA/BSc,prefer not to say,7,4,3,7,7,1,5
4429980,computer,Edge 92.0.902.62,nm_1,59,59,465.09999990463257,TH,TRUE,TH,NM,TH,pair,onset,thole,TRUE,1.54,30.4873532,2,8529,əʊ,487.9462078116454,945.9301497091374,0.4,1,No,No,24,female,Other (please specify),China,BA/BSc,prefer not to say,7,4,3,7,7,1,5
4429980,computer,Edge 92.0.902.62,nm_1,42,60,394.40000009536743,S,TRUE,S,NM,SS,pair,coda,lease,FALSE,3.84,39.49037225,0,5490,i:,287.40550444881274,2354.793065190407,0.4,1,No,No,24,female,Other (please specify),China,BA/BSc,prefer not to say,7,4,3,7,7,1,5
4430869,computer,Chrome 92.0.4515.107,nm_1,22,2,5798.799999999814,TH,FALSE,F,NM,FF,pair,coda,loaf,TRUE,3.77,29.03169428,1,6083,əʊ,450.0518968001741,1137.85837798808,0.6,0.5,Yes,No,44,female,United States,NA,some college,prefer not to say,7,1,4,2,4,4,6
4430869,computer,Chrome 92.0.4515.107,nm_1,42,3,662.4000000003725,S,TRUE,S,NM,SS,pair,coda,lease,FALSE,3.84,39.49037225,0,5490,i:,287.40550444881274,2354.793065190407,0.6,0.5,Yes,No,44,female,United States,NA,some college,prefer not to say,7,1,4,2,4,4,6
4430869,computer,Chrome 92.0.4515.107,nm_1,59,4,1015.2000000001864,TH,TRUE,TH,NM,TH,pair,onset,thole,TRUE,1.54,30.4873532,2,8529,əʊ,487.9462078116454,945.9301497091374,0.6,0.5,Yes,No,44,female,United States,NA,some college,prefer not to say,7,1,4,2,4,4,6
4430869,computer,Chrome 92.0.4515.107,nm_1,25,5,1111.199999999255,F,TRUE,F,NM,FF,pair,coda,roof,TRUE,4.72,32.55925052,1,5188,u:,441.0453789240863,1379.6535606635946,0.6,0.5,Yes,No,44,female,United States,NA,some college,prefer not to say,7,1,4,2,4,4,6
4430869,computer,Chrome 92.0.4515.107,nm_1,39,6,1629.2000000001865,SH,TRUE,SH,NM,SH,pair,onset,short,FALSE,5.13,37.41534288,0,4620,ɔ:,489.9511213017793,1540.7832085298107,0.6,0.5,Yes,No,44,female,United States,NA,some college,prefer not to say,7,1,4,2,4,4,6
4430869,computer,Chrome 92.0.4515.107,nm_1,46,7,1133.9000000003723,S,TRUE,S,NM,SS,pair,onset,sigh,FALSE,3.66,41.37901249,0,5979,aɪ,509.30414504772887,1388.106480031303,0.6,0.5,Yes,No,44,female,United States,NA,some college,prefer not to say,7,1,4,2,4,4,6
4430869,computer,Chrome 92.0.4515.107,nm_1,23,11,1109.1000000005588,F,TRUE,F,NM,FF,pair,coda,oaf,TRUE,2.7,27.98698369,1,6466,əʊ,472.57339295927466,1180.0522494371749,0.6,0.5,Yes,No,44,female,United States,NA,some college,prefer not to say,7,1,4,2,4,4,6
4430869,computer,Chrome 92.0.4515.107,nm_1,58,12,1805.3999999994412,TH,TRUE,TH,NM,TH,pair,onset,thin,TRUE,4.48,30.14064943,2,2954,ɪ,424.2859030964207,1971.0932396265157,0.6,0.5,Yes,No,44,female,United States,NA,some college,prefer not to say,7,1,4,2,4,4,6
4430869,computer,Chrome 92.0.4515.107,nm_1,45,13,3159.2999999998137,S,TRUE,S,NM,SS,pair,coda,puss,FALSE,3.12,38.76511023,0,5439,ʊ,433.7419937400706,1025.6692679574835,0.6,0.5,Yes,No,44,female,United States,NA,some college,prefer not to say,7,1,4,2,4,4,6
4430869,computer,Chrome 92.0.4515.107,nm_1,55,14,1635.7000000001865,TH,TRUE,TH,NM,TH,pair,coda,wreath,TRUE,3.28,26.84374713,2,6030,i:,349.13545342914,2016.8549233676465,0.6,0.5,Yes,No,44,female,United States,NA,some college,prefer not to say,7,1,4,2,4,4,6
4430869,computer,Chrome 92.0.4515.107,nm_1,57,15,2849.2999999998137,TH,TRUE,TH,NM,TH,pair,onset,thigh,TRUE,3.48,32.62028023,2,4097,aɪ,528.706484934861,1449.172226026241,0.6,0.5,Yes,No,44,female,United States,NA,some college,prefer not to say,7,1,4,2,4,4,6
4430869,computer,Chrome 92.0.4515.107,nm_1,37,16,1021.7999999998136,SH,TRUE,SH,NM,SH,pair,onset,shoal,FALSE,3.04,37.64432653,0,3948,əʊ,500.6312383937159,1031.0206693781254,0.6,0.5,Yes,No,44,female,United States,NA,some college,prefer not to say,7,1,4,2,4,4,6
4430869,computer,Chrome 92.0.4515.107,nm_1,56,18,709.7999999998137,TH,TRUE,TH,NM,TH,pair,onset,thaw,TRUE,3.27,28.96203439,2,8045,ɔ:,435.1453476697292,808.8805808693594,0.6,0.5,Yes,No,44,female,United States,NA,some college,prefer not to say,7,1,4,2,4,4,6
4430869,computer,Chrome 92.0.4515.107,nm_1,26,19,833.5,F,TRUE,F,NM,FF,pair,onset,fie,TRUE,2.47,30.77713035,1,8472,aɪ,498.69053418185376,1402.6273181156027,0.6,0.5,Yes,No,44,female,United States,NA,some college,prefer not to say,7,1,4,2,4,4,6
4430869,computer,Chrome 92.0.4515.107,nm_1,44,20,997,S,TRUE,S,NM,SS,pair,coda,plus,FALSE,4.78,36.53544495,0,5201,ʌ,637.2470101127309,1202.1883602585203,0.6,0.5,Yes,No,44,female,United States,NA,some college,prefer not to say,7,1,4,2,4,4,6
4430869,computer,Chrome 92.0.4515.107,nm_1,43,21,635.2999999998137,S,TRUE,S,NM,SS,pair,coda,mess,FALSE,4.79,36.17035307,0,5457,ɛ,628.444388543489,1653.820775737603,0.6,0.5,Yes,No,44,female,United States,NA,some college,prefer not to say,7,1,4,2,4,4,6
4430869,computer,Chrome 92.0.4515.107,nm_1,34,22,1550.7000000001865,SH,TRUE,SH,NM,SH,pair,coda,plush,FALSE,2.98,33.82094552,0,4158,ʌ,590.105107191927,1053.0985381501737,0.6,0.5,Yes,No,44,female,United States,NA,some college,prefer not to say,7,1,4,2,4,4,6
4430869,computer,Chrome 92.0.4515.107,nm_1,35,23,698.2000000001863,SH,TRUE,SH,NM,SH,pair,coda,push,FALSE,4.92,34.83622897,0,3617,ʊ,444.06320867077545,1052.8060205473794,0.6,0.5,Yes,No,44,female,United States,NA,some college,prefer not to say,7,1,4,2,4,4,6
4430869,computer,Chrome 92.0.4515.107,nm_1,49,24,1275.2999999998135,TH,FALSE,S,NM,SS,pair,onset,sought,FALSE,4.13,42.84970627,0,5753,ɔ:,449.13357223033415,1000.69297730879,0.6,0.5,Yes,No,44,female,United States,NA,some college,prefer not to say,7,1,4,2,4,4,6
4430869,computer,Chrome 92.0.4515.107,nm_1,41,29,1395,S,TRUE,S,NM,SS,pair,coda,ass,FALSE,4.09,39.03014753,0,5034,a,718.4349765510347,1476.9724719998735,0.6,0.5,Yes,No,44,female,United States,NA,some college,prefer not to say,7,1,4,2,4,4,6
4430869,computer,Chrome 92.0.4515.107,nm_1,33,30,1463.3999999994412,SH,TRUE,SH,NM,SH,pair,coda,mesh,FALSE,3.27,33.56798697,0,3601,ɛ,558.9508597606649,1699.9650124253706,0.6,0.5,Yes,No,44,female,United States,NA,some college,prefer not to say,7,1,4,2,4,4,6
4430869,computer,Chrome 92.0.4515.107,nm_1,29,31,858.8999999994412,F,TRUE,F,NM,FF,pair,onset,fought,TRUE,4.47,34.6954365,1,8605,ɔ:,448.2673753038556,861.6077780914028,0.6,0.5,Yes,No,44,female,United States,NA,some college,prefer not to say,7,1,4,2,4,4,6
4430869,computer,Chrome 92.0.4515.107,nm_1,28,33,1016.9000000003724,F,TRUE,F,NM,FF,pair,onset,foal,TRUE,3.15,28.57906601,1,9802,əʊ,452.4908077590797,806.181080281329,0.6,0.5,Yes,No,44,female,United States,NA,some college,prefer not to say,7,1,4,2,4,4,6
4430869,computer,Chrome 92.0.4515.107,nm_1,47,34,575.5,S,TRUE,S,NM,SS,pair,onset,sin,FALSE,3.96,43.9163708,0,5970,ɪ,416.70711900247017,1881.87631709883,0.6,0.5,Yes,No,44,female,United States,NA,some college,prefer not to say,7,1,4,2,4,4,6
4430869,computer,Chrome 92.0.4515.107,nm_1,53,35,1035.3999999994412,TH,TRUE,TH,NM,TH,pair,coda,oath,TRUE,3.54,28.61263962,1,5905,əʊ,462.9541289738834,1188.000083415647,0.6,0.5,Yes,No,44,female,United States,NA,some college,prefer not to say,7,1,4,2,4,4,6
4430869,computer,Chrome 92.0.4515.107,nm_1,32,36,577.9000000003725,SH,TRUE,SH,NM,SH,pair,coda,leash,FALSE,3.12,34.41750304,0,3351,i:,297.340730292577,2363.507119747921,0.6,0.5,Yes,No,44,female,United States,NA,some college,prefer not to say,7,1,4,2,4,4,6
4430869,computer,Chrome 92.0.4515.107,nm_1,60,40,719.3000000007451,TH,TRUE,TH,NM,TH,pair,onset,thought,TRUE,5.84,30.03527609,2,7602,ɔ:,454.5535158131208,1126.436300020404,0.6,0.5,Yes,No,44,female,United States,NA,some college,prefer not to say,7,1,4,2,4,4,6
4430869,computer,Chrome 92.0.4515.107,nm_1,48,41,1955.2000000001865,S,TRUE,S,NM,SS,pair,onset,sore,FALSE,4.06,44.26134749,0,5943,ɔ:,437.5607903939694,1155.5882277347737,0.6,0.5,Yes,No,44,female,United States,NA,some college,prefer not to say,7,1,4,2,4,4,6
4430869,computer,Chrome 92.0.4515.107,nm_1,27,42,1949.0999999996277,F,TRUE,F,NM,FF,pair,onset,fin,TRUE,3.59,31.84145761,1,5117,ɪ,441.4452841620668,1945.6091687046203,0.6,0.5,Yes,No,44,female,United States,NA,some college,prefer not to say,7,1,4,2,4,4,6
4430869,computer,Chrome 92.0.4515.107,nm_1,51,43,5278.700000000186,TH,TRUE,TH,NM,TH,pair,coda,death,TRUE,5.14,25.17853656,2,4331,ɛ,625.846855705086,1657.2325794868837,0.6,0.5,Yes,No,44,female,United States,NA,some college,prefer not to say,7,1,4,2,4,4,6
4430869,computer,Chrome 92.0.4515.107,nm_1,21,44,1411.4000000003723,X,FALSE,F,NM,FF,pair,coda,deaf,TRUE,3.9,27.47261099,1,6129,e,609.7158180834749,1637.553975745216,0.6,0.5,Yes,No,44,female,United States,NA,some college,prefer not to say,7,1,4,2,4,4,6
4430869,computer,Chrome 92.0.4515.107,nm_1,24,45,1124.9000000003723,F,TRUE,F,NM,FF,pair,coda,reef,TRUE,3.79,29.65935414,1,6900,i:,350.4359996049278,1973.3230597501824,0.6,0.5,Yes,No,44,female,United States,NA,some college,prefer not to say,7,1,4,2,4,4,6
4430869,computer,Chrome 92.0.4515.107,nm_1,54,46,1649.5,TH,TRUE,TH,NM,TH,pair,coda,ruth,TRUE,4.39,29.52085089,1,3193,u:,356.2940484527308,1278.746062263053,0.6,0.5,Yes,No,44,female,United States,NA,some college,prefer not to say,7,1,4,2,4,4,6
4430869,computer,Chrome 92.0.4515.107,nm_1,31,47,804,SH,TRUE,SH,NM,SH,pair,coda,ash,FALSE,4.19,35.42637673,0,3533,a,614.3227347989738,1500.7920108495807,0.6,0.5,Yes,No,44,female,United States,NA,some college,prefer not to say,7,1,4,2,4,4,6
4430869,computer,Chrome 92.0.4515.107,nm_1,50,49,843,S,TRUE,S,NM,SS,pair,onset,soul,FALSE,4.53,40.65935899,0,5973,əʊ,488.7883811553887,837.4153882714268,0.6,0.5,Yes,No,44,female,United States,NA,some college,prefer not to say,7,1,4,2,4,4,6
4430869,computer,Chrome 92.0.4515.107,nm_1,36,50,953.7999999998136,SH,TRUE,SH,NM,SH,pair,onset,shin,FALSE,3.3,38.63219732,0,3542,ɪ,428.0573131118717,2012.7319368425408,0.6,0.5,Yes,No,44,female,United States,NA,some college,prefer not to say,7,1,4,2,4,4,6
4430869,computer,Chrome 92.0.4515.107,nm_1,38,51,886.5999999996275,SH,TRUE,SH,NM,SH,pair,onset,shore,FALSE,4.12,37.97554534,0,4134,ɔ:,466.6179707694524,1175.1149784517122,0.6,0.5,Yes,No,44,female,United States,NA,some college,prefer not to say,7,1,4,2,4,4,6
4430869,computer,Chrome 92.0.4515.107,nm_1,30,55,566.8999999994412,F,TRUE,F,NM,FF,pair,onset,four,TRUE,5.67,34.37218612,1,9416,ɔ:,452.2742670429064,908.1617544348076,0.6,0.5,Yes,No,44,female,United States,NA,some college,prefer not to say,7,1,4,2,4,4,6
4430869,computer,Chrome 92.0.4515.107,nm_1,52,57,3458.5999999996275,X,FALSE,TH,NM,TH,pair,coda,loath,TRUE,2.69,27.1697819,1,4313,əʊ,449.7029396444894,1115.2451376787778,0.6,0.5,Yes,No,44,female,United States,NA,some college,prefer not to say,7,1,4,2,4,4,6
4430869,computer,Chrome 92.0.4515.107,nm_1,40,60,902,SH,TRUE,SH,NM,SH,pair,onset,shy,FALSE,4.27,39.50228141,0,3622,ʌɪ,633.998539992286,1682.0075151606634,0.6,0.5,Yes,No,44,female,United States,NA,some college,prefer not to say,7,1,4,2,4,4,6
4434028,computer,Firefox 83.0,nm_1,41,3,568,S,TRUE,S,NM,SS,pair,coda,ass,FALSE,4.09,39.03014753,0,5034,a,718.4349765510347,1476.9724719998735,1,1,Yes,No,28,female,Other (please specify),"Thailand (until the age of 11), England (from 12-21)",PhD,left/liberal,7,3,5,6,6,1,7
4434028,computer,Firefox 83.0,nm_1,33,4,544,SH,TRUE,SH,NM,SH,pair,coda,mesh,FALSE,3.27,33.56798697,0,3601,ɛ,558.9508597606649,1699.9650124253706,1,1,Yes,No,28,female,Other (please specify),"Thailand (until the age of 11), England (from 12-21)",PhD,left/liberal,7,3,5,6,6,1,7
4434028,computer,Firefox 83.0,nm_1,54,5,368,TH,TRUE,TH,NM,TH,pair,coda,ruth,TRUE,4.39,29.52085089,1,3193,u:,356.2940484527308,1278.746062263053,1,1,Yes,No,28,female,Other (please specify),"Thailand (until the age of 11), England (from 12-21)",PhD,left/liberal,7,3,5,6,6,1,7
4434028,computer,Firefox 83.0,nm_1,53,6,432,TH,TRUE,TH,NM,TH,pair,coda,oath,TRUE,3.54,28.61263962,1,5905,əʊ,462.9541289738834,1188.000083415647,1,1,Yes,No,28,female,Other (please specify),"Thailand (until the age of 11), England (from 12-21)",PhD,left/liberal,7,3,5,6,6,1,7
4434028,computer,Firefox 83.0,nm_1,31,8,910,SH,TRUE,SH,NM,SH,pair,coda,ash,FALSE,4.19,35.42637673,0,3533,a,614.3227347989738,1500.7920108495807,1,1,Yes,No,28,female,Other (please specify),"Thailand (until the age of 11), England (from 12-21)",PhD,left/liberal,7,3,5,6,6,1,7
4434028,computer,Firefox 83.0,nm_1,42,9,1022,S,TRUE,S,NM,SS,pair,coda,lease,FALSE,3.84,39.49037225,0,5490,i:,287.40550444881274,2354.793065190407,1,1,Yes,No,28,female,Other (please specify),"Thailand (until the age of 11), England (from 12-21)",PhD,left/liberal,7,3,5,6,6,1,7
4434028,computer,Firefox 83.0,nm_1,24,10,781,TH,FALSE,F,NM,FF,pair,coda,reef,TRUE,3.79,29.65935414,1,6900,i:,350.4359996049278,1973.3230597501824,1,1,Yes,No,28,female,Other (please specify),"Thailand (until the age of 11), England (from 12-21)",PhD,left/liberal,7,3,5,6,6,1,7
4434028,computer,Firefox 83.0,nm_1,28,15,1316,F,TRUE,F,NM,FF,pair,onset,foal,TRUE,3.15,28.57906601,1,9802,əʊ,452.4908077590797,806.181080281329,1,1,Yes,No,28,female,Other (please specify),"Thailand (until the age of 11), England (from 12-21)",PhD,left/liberal,7,3,5,6,6,1,7
4434028,computer,Firefox 83.0,nm_1,36,18,593,SH,TRUE,SH,NM,SH,pair,onset,shin,FALSE,3.3,38.63219732,0,3542,ɪ,428.0573131118717,2012.7319368425408,1,1,Yes,No,28,female,Other (please specify),"Thailand (until the age of 11), England (from 12-21)",PhD,left/liberal,7,3,5,6,6,1,7
4434028,computer,Firefox 83.0,nm_1,32,21,807,SH,TRUE,SH,NM,SH,pair,coda,leash,FALSE,3.12,34.41750304,0,3351,i:,297.340730292577,2363.507119747921,1,1,Yes,No,28,female,Other (please specify),"Thailand (until the age of 11), England (from 12-21)",PhD,left/liberal,7,3,5,6,6,1,7
4434028,computer,Firefox 83.0,nm_1,46,22,1264,S,TRUE,S,NM,SS,pair,onset,sigh,FALSE,3.66,41.37901249,0,5979,aɪ,509.30414504772887,1388.106480031303,1,1,Yes,No,28,female,Other (please specify),"Thailand (until the age of 11), England (from 12-21)",PhD,left/liberal,7,3,5,6,6,1,7
4434028,computer,Firefox 83.0,nm_1,44,23,585,S,TRUE,S,NM,SS,pair,coda,plus,FALSE,4.78,36.53544495,0,5201,ʌ,637.2470101127309,1202.1883602585203,1,1,Yes,No,28,female,Other (please specify),"Thailand (until the age of 11), England (from 12-21)",PhD,left/liberal,7,3,5,6,6,1,7
4434028,computer,Firefox 83.0,nm_1,29,24,924,F,TRUE,F,NM,FF,pair,onset,fought,TRUE,4.47,34.6954365,1,8605,ɔ:,448.2673753038556,861.6077780914028,1,1,Yes,No,28,female,Other (please specify),"Thailand (until the age of 11), England (from 12-21)",PhD,left/liberal,7,3,5,6,6,1,7
4434028,computer,Firefox 83.0,nm_1,48,27,469,S,TRUE,S,NM,SS,pair,onset,sore,FALSE,4.06,44.26134749,0,5943,ɔ:,437.5607903939694,1155.5882277347737,1,1,Yes,No,28,female,Other (please specify),"Thailand (until the age of 11), England (from 12-21)",PhD,left/liberal,7,3,5,6,6,1,7
4434028,computer,Firefox 83.0,nm_1,37,28,455,SH,TRUE,SH,NM,SH,pair,onset,shoal,FALSE,3.04,37.64432653,0,3948,əʊ,500.6312383937159,1031.0206693781254,1,1,Yes,No,28,female,Other (please specify),"Thailand (until the age of 11), England (from 12-21)",PhD,left/liberal,7,3,5,6,6,1,7
4434028,computer,Firefox 83.0,nm_1,27,29,484,SH,FALSE,F,NM,FF,pair,onset,fin,TRUE,3.59,31.84145761,1,5117,ɪ,441.4452841620668,1945.6091687046203,1,1,Yes,No,28,female,Other (please specify),"Thailand (until the age of 11), England (from 12-21)",PhD,left/liberal,7,3,5,6,6,1,7
4434028,computer,Firefox 83.0,nm_1,50,30,526,S,TRUE,S,NM,SS,pair,onset,soul,FALSE,4.53,40.65935899,0,5973,əʊ,488.7883811553887,837.4153882714268,1,1,Yes,No,28,female,Other (please specify),"Thailand (until the age of 11), England (from 12-21)",PhD,left/liberal,7,3,5,6,6,1,7
4434028,computer,Firefox 83.0,nm_1,39,32,533,SH,TRUE,SH,NM,SH,pair,onset,short,FALSE,5.13,37.41534288,0,4620,ɔ:,489.9511213017793,1540.7832085298107,1,1,Yes,No,28,female,Other (please specify),"Thailand (until the age of 11), England (from 12-21)",PhD,left/liberal,7,3,5,6,6,1,7
4434028,computer,Firefox 83.0,nm_1,38,33,486,S,FALSE,SH,NM,SH,pair,onset,shore,FALSE,4.12,37.97554534,0,4134,ɔ:,466.6179707694524,1175.1149784517122,1,1,Yes,No,28,female,Other (please specify),"Thailand (until the age of 11), England (from 12-21)",PhD,left/liberal,7,3,5,6,6,1,7
4434028,computer,Firefox 83.0,nm_1,34,34,1232,X,FALSE,SH,NM,SH,pair,coda,plush,FALSE,2.98,33.82094552,0,4158,ʌ,590.105107191927,1053.0985381501737,1,1,Yes,No,28,female,Other (please specify),"Thailand (until the age of 11), England (from 12-21)",PhD,left/liberal,7,3,5,6,6,1,7
4434028,computer,Firefox 83.0,nm_1,23,35,1356,TH,FALSE,F,NM,FF,pair,coda,oaf,TRUE,2.7,27.98698369,1,6466,əʊ,472.57339295927466,1180.0522494371749,1,1,Yes,No,28,female,Other (please specify),"Thailand (until the age of 11), England (from 12-21)",PhD,left/liberal,7,3,5,6,6,1,7
4434028,computer,Firefox 83.0,nm_1,30,36,775,F,TRUE,F,NM,FF,pair,onset,four,TRUE,5.67,34.37218612,1,9416,ɔ:,452.2742670429064,908.1617544348076,1,1,Yes,No,28,female,Other (please specify),"Thailand (until the age of 11), England (from 12-21)",PhD,left/liberal,7,3,5,6,6,1,7
4434028,computer,Firefox 83.0,nm_1,35,37,770,SH,TRUE,SH,NM,SH,pair,coda,push,FALSE,4.92,34.83622897,0,3617,ʊ,444.06320867077545,1052.8060205473794,1,1,Yes,No,28,female,Other (please specify),"Thailand (until the age of 11), England (from 12-21)",PhD,left/liberal,7,3,5,6,6,1,7
4434028,computer,Firefox 83.0,nm_1,45,38,435,S,TRUE,S,NM,SS,pair,coda,puss,FALSE,3.12,38.76511023,0,5439,ʊ,433.7419937400706,1025.6692679574835,1,1,Yes,No,28,female,Other (please specify),"Thailand (until the age of 11), England (from 12-21)",PhD,left/liberal,7,3,5,6,6,1,7
4434028,computer,Firefox 83.0,nm_1,47,39,392,S,TRUE,S,NM,SS,pair,onset,sin,FALSE,3.96,43.9163708,0,5970,ɪ,416.70711900247017,1881.87631709883,1,1,Yes,No,28,female,Other (please specify),"Thailand (until the age of 11), England (from 12-21)",PhD,left/liberal,7,3,5,6,6,1,7
4434028,computer,Firefox 83.0,nm_1,22,40,946,F,TRUE,F,NM,FF,pair,coda,loaf,TRUE,3.77,29.03169428,1,6083,əʊ,450.0518968001741,1137.85837798808,1,1,Yes,No,28,female,Other (please specify),"Thailand (until the age of 11), England (from 12-21)",PhD,left/liberal,7,3,5,6,6,1,7
4434028,computer,Firefox 83.0,nm_1,21,41,411,TH,FALSE,F,NM,FF,pair,coda,deaf,TRUE,3.9,27.47261099,1,6129,e,609.7158180834749,1637.553975745216,1,1,Yes,No,28,female,Other (please specify),"Thailand (until the age of 11), England (from 12-21)",PhD,left/liberal,7,3,5,6,6,1,7
4434028,computer,Firefox 83.0,nm_1,51,42,405,TH,TRUE,TH,NM,TH,pair,coda,death,TRUE,5.14,25.17853656,2,4331,ɛ,625.846855705086,1657.2325794868837,1,1,Yes,No,28,female,Other (please specify),"Thailand (until the age of 11), England (from 12-21)",PhD,left/liberal,7,3,5,6,6,1,7
4434028,computer,Firefox 83.0,nm_1,55,43,411,TH,TRUE,TH,NM,TH,pair,coda,wreath,TRUE,3.28,26.84374713,2,6030,i:,349.13545342914,2016.8549233676465,1,1,Yes,No,28,female,Other (please specify),"Thailand (until the age of 11), England (from 12-21)",PhD,left/liberal,7,3,5,6,6,1,7
4434028,computer,Firefox 83.0,nm_1,26,44,690,F,TRUE,F,NM,FF,pair,onset,fie,TRUE,2.47,30.77713035,1,8472,aɪ,498.69053418185376,1402.6273181156027,1,1,Yes,No,28,female,Other (please specify),"Thailand (until the age of 11), England (from 12-21)",PhD,left/liberal,7,3,5,6,6,1,7
4434028,computer,Firefox 83.0,nm_1,25,45,566,TH,FALSE,F,NM,FF,pair,coda,roof,TRUE,4.72,32.55925052,1,5188,u:,441.0453789240863,1379.6535606635946,1,1,Yes,No,28,female,Other (please specify),"Thailand (until the age of 11), England (from 12-21)",PhD,left/liberal,7,3,5,6,6,1,7
4434028,computer,Firefox 83.0,nm_1,59,46,992,TH,TRUE,TH,NM,TH,pair,onset,thole,TRUE,1.54,30.4873532,2,8529,əʊ,487.9462078116454,945.9301497091374,1,1,Yes,No,28,female,Other (please specify),"Thailand (until the age of 11), England (from 12-21)",PhD,left/liberal,7,3,5,6,6,1,7
4434028,computer,Firefox 83.0,nm_1,56,48,351,TH,TRUE,TH,NM,TH,pair,onset,thaw,TRUE,3.27,28.96203439,2,8045,ɔ:,435.1453476697292,808.8805808693594,1,1,Yes,No,28,female,Other (please specify),"Thailand (until the age of 11), England (from 12-21)",PhD,left/liberal,7,3,5,6,6,1,7
4434028,computer,Firefox 83.0,nm_1,58,49,376,TH,TRUE,TH,NM,TH,pair,onset,thin,TRUE,4.48,30.14064943,2,2954,ɪ,424.2859030964207,1971.0932396265157,1,1,Yes,No,28,female,Other (please specify),"Thailand (until the age of 11), England (from 12-21)",PhD,left/liberal,7,3,5,6,6,1,7
4434028,computer,Firefox 83.0,nm_1,49,52,647,S,TRUE,S,NM,SS,pair,onset,sought,FALSE,4.13,42.84970627,0,5753,ɔ:,449.13357223033415,1000.69297730879,1,1,Yes,No,28,female,Other (please specify),"Thailand (until the age of 11), England (from 12-21)",PhD,left/liberal,7,3,5,6,6,1,7
4434028,computer,Firefox 83.0,nm_1,57,53,345,TH,TRUE,TH,NM,TH,pair,onset,thigh,TRUE,3.48,32.62028023,2,4097,aɪ,528.706484934861,1449.172226026241,1,1,Yes,No,28,female,Other (please specify),"Thailand (until the age of 11), England (from 12-21)",PhD,left/liberal,7,3,5,6,6,1,7
4434028,computer,Firefox 83.0,nm_1,52,54,1355,TH,TRUE,TH,NM,TH,pair,coda,loath,TRUE,2.69,27.1697819,1,4313,əʊ,449.7029396444894,1115.2451376787778,1,1,Yes,No,28,female,Other (please specify),"Thailand (until the age of 11), England (from 12-21)",PhD,left/liberal,7,3,5,6,6,1,7
4434028,computer,Firefox 83.0,nm_1,43,57,533,S,TRUE,S,NM,SS,pair,coda,mess,FALSE,4.79,36.17035307,0,5457,ɛ,628.444388543489,1653.820775737603,1,1,Yes,No,28,female,Other (please specify),"Thailand (until the age of 11), England (from 12-21)",PhD,left/liberal,7,3,5,6,6,1,7
4434028,computer,Firefox 83.0,nm_1,60,58,832,TH,TRUE,TH,NM,TH,pair,onset,thought,TRUE,5.84,30.03527609,2,7602,ɔ:,454.5535158131208,1126.436300020404,1,1,Yes,No,28,female,Other (please specify),"Thailand (until the age of 11), England (from 12-21)",PhD,left/liberal,7,3,5,6,6,1,7
4434028,computer,Firefox 83.0,nm_1,40,59,848,SH,TRUE,SH,NM,SH,pair,onset,shy,FALSE,4.27,39.50228141,0,3622,ʌɪ,633.998539992286,1682.0075151606634,1,1,Yes,No,28,female,Other (please specify),"Thailand (until the age of 11), England (from 12-21)",PhD,left/liberal,7,3,5,6,6,1,7
4434160,mobile,Chrome 92.0.4515.131,nm_1,43,1,685.8999999985099,S,TRUE,S,NM,SS,pair,coda,mess,FALSE,4.79,36.17035307,0,5457,ɛ,628.444388543489,1653.820775737603,0.6,0.5,Yes,No,53,non-binary,England,NA,BA/BSc,left/liberal,7,1,3,5,7,1,7
4434160,mobile,Chrome 92.0.4515.131,nm_1,33,2,538.8000000044703,SH,TRUE,SH,NM,SH,pair,coda,mesh,FALSE,3.27,33.56798697,0,3601,ɛ,558.9508597606649,1699.9650124253706,0.6,0.5,Yes,No,53,non-binary,England,NA,BA/BSc,left/liberal,7,1,3,5,7,1,7
4434160,mobile,Chrome 92.0.4515.131,nm_1,52,3,658.9000000059605,F,FALSE,TH,NM,TH,pair,coda,loath,TRUE,2.69,27.1697819,1,4313,əʊ,449.7029396444894,1115.2451376787778,0.6,0.5,Yes,No,53,non-binary,England,NA,BA/BSc,left/liberal,7,1,3,5,7,1,7
4434160,mobile,Chrome 92.0.4515.131,nm_1,36,4,806.2000000029802,SH,TRUE,SH,NM,SH,pair,onset,shin,FALSE,3.3,38.63219732,0,3542,ɪ,428.0573131118717,2012.7319368425408,0.6,0.5,Yes,No,53,non-binary,England,NA,BA/BSc,left/liberal,7,1,3,5,7,1,7
4434160,mobile,Chrome 92.0.4515.131,nm_1,22,6,539.3999999985099,F,TRUE,F,NM,FF,pair,coda,loaf,TRUE,3.77,29.03169428,1,6083,əʊ,450.0518968001741,1137.85837798808,0.6,0.5,Yes,No,53,non-binary,England,NA,BA/BSc,left/liberal,7,1,3,5,7,1,7
4434160,mobile,Chrome 92.0.4515.131,nm_1,23,7,455.6000000014901,F,TRUE,F,NM,FF,pair,coda,oaf,TRUE,2.7,27.98698369,1,6466,əʊ,472.57339295927466,1180.0522494371749,0.6,0.5,Yes,No,53,non-binary,England,NA,BA/BSc,left/liberal,7,1,3,5,7,1,7
4434160,mobile,Chrome 92.0.4515.131,nm_1,21,8,563.1000000014901,F,TRUE,F,NM,FF,pair,coda,deaf,TRUE,3.9,27.47261099,1,6129,e,609.7158180834749,1637.553975745216,0.6,0.5,Yes,No,53,non-binary,England,NA,BA/BSc,left/liberal,7,1,3,5,7,1,7
4434160,mobile,Chrome 92.0.4515.131,nm_1,34,10,763.5,SH,TRUE,SH,NM,SH,pair,coda,plush,FALSE,2.98,33.82094552,0,4158,ʌ,590.105107191927,1053.0985381501737,0.6,0.5,Yes,No,53,non-binary,England,NA,BA/BSc,left/liberal,7,1,3,5,7,1,7
4434160,mobile,Chrome 92.0.4515.131,nm_1,39,11,503.1000000014901,SH,TRUE,SH,NM,SH,pair,onset,short,FALSE,5.13,37.41534288,0,4620,ɔ:,489.9511213017793,1540.7832085298107,0.6,0.5,Yes,No,53,non-binary,England,NA,BA/BSc,left/liberal,7,1,3,5,7,1,7
4434160,mobile,Chrome 92.0.4515.131,nm_1,41,16,692.2999999970198,S,TRUE,S,NM,SS,pair,coda,ass,FALSE,4.09,39.03014753,0,5034,a,718.4349765510347,1476.9724719998735,0.6,0.5,Yes,No,53,non-binary,England,NA,BA/BSc,left/liberal,7,1,3,5,7,1,7
4434160,mobile,Chrome 92.0.4515.131,nm_1,30,17,547.8999999985099,F,TRUE,F,NM,FF,pair,onset,four,TRUE,5.67,34.37218612,1,9416,ɔ:,452.2742670429064,908.1617544348076,0.6,0.5,Yes,No,53,non-binary,England,NA,BA/BSc,left/liberal,7,1,3,5,7,1,7
4434160,mobile,Chrome 92.0.4515.131,nm_1,31,18,443.20000000298023,SH,TRUE,SH,NM,SH,pair,coda,ash,FALSE,4.19,35.42637673,0,3533,a,614.3227347989738,1500.7920108495807,0.6,0.5,Yes,No,53,non-binary,England,NA,BA/BSc,left/liberal,7,1,3,5,7,1,7
4434160,mobile,Chrome 92.0.4515.131,nm_1,60,19,646,TH,TRUE,TH,NM,TH,pair,onset,thought,TRUE,5.84,30.03527609,2,7602,ɔ:,454.5535158131208,1126.436300020404,0.6,0.5,Yes,No,53,non-binary,England,NA,BA/BSc,left/liberal,7,1,3,5,7,1,7
4434160,mobile,Chrome 92.0.4515.131,nm_1,37,20,477.6000000014901,SH,TRUE,SH,NM,SH,pair,onset,shoal,FALSE,3.04,37.64432653,0,3948,əʊ,500.6312383937159,1031.0206693781254,0.6,0.5,Yes,No,53,non-binary,England,NA,BA/BSc,left/liberal,7,1,3,5,7,1,7
4434160,mobile,Chrome 92.0.4515.131,nm_1,28,22,536.3000000044703,F,TRUE,F,NM,FF,pair,onset,foal,TRUE,3.15,28.57906601,1,9802,əʊ,452.4908077590797,806.181080281329,0.6,0.5,Yes,No,53,non-binary,England,NA,BA/BSc,left/liberal,7,1,3,5,7,1,7
4434160,mobile,Chrome 92.0.4515.131,nm_1,54,24,603.1000000014901,TH,TRUE,TH,NM,TH,pair,coda,ruth,TRUE,4.39,29.52085089,1,3193,u:,356.2940484527308,1278.746062263053,0.6,0.5,Yes,No,53,non-binary,England,NA,BA/BSc,left/liberal,7,1,3,5,7,1,7
4434160,mobile,Chrome 92.0.4515.131,nm_1,32,25,473.70000000298023,SH,TRUE,SH,NM,SH,pair,coda,leash,FALSE,3.12,34.41750304,0,3351,i:,297.340730292577,2363.507119747921,0.6,0.5,Yes,No,53,non-binary,England,NA,BA/BSc,left/liberal,7,1,3,5,7,1,7
4434160,mobile,Chrome 92.0.4515.131,nm_1,50,26,401.80000000447035,S,TRUE,S,NM,SS,pair,onset,soul,FALSE,4.53,40.65935899,0,5973,əʊ,488.7883811553887,837.4153882714268,0.6,0.5,Yes,No,53,non-binary,England,NA,BA/BSc,left/liberal,7,1,3,5,7,1,7
4434160,mobile,Chrome 92.0.4515.131,nm_1,57,27,742.6000000014901,TH,TRUE,TH,NM,TH,pair,onset,thigh,TRUE,3.48,32.62028023,2,4097,aɪ,528.706484934861,1449.172226026241,0.6,0.5,Yes,No,53,non-binary,England,NA,BA/BSc,left/liberal,7,1,3,5,7,1,7
4434160,mobile,Chrome 92.0.4515.131,nm_1,56,28,558.5999999940395,TH,TRUE,TH,NM,TH,pair,onset,thaw,TRUE,3.27,28.96203439,2,8045,ɔ:,435.1453476697292,808.8805808693594,0.6,0.5,Yes,No,53,non-binary,England,NA,BA/BSc,left/liberal,7,1,3,5,7,1,7
4434160,mobile,Chrome 92.0.4515.131,nm_1,24,32,420.69999999552965,F,TRUE,F,NM,FF,pair,coda,reef,TRUE,3.79,29.65935414,1,6900,i:,350.4359996049278,1973.3230597501824,0.6,0.5,Yes,No,53,non-binary,England,NA,BA/BSc,left/liberal,7,1,3,5,7,1,7
4434160,mobile,Chrome 92.0.4515.131,nm_1,45,33,395.09999999403954,S,TRUE,S,NM,SS,pair,coda,puss,FALSE,3.12,38.76511023,0,5439,ʊ,433.7419937400706,1025.6692679574835,0.6,0.5,Yes,No,53,non-binary,England,NA,BA/BSc,left/liberal,7,1,3,5,7,1,7
4434160,mobile,Chrome 92.0.4515.131,nm_1,53,34,459,TH,TRUE,TH,NM,TH,pair,coda,oath,TRUE,3.54,28.61263962,1,5905,əʊ,462.9541289738834,1188.000083415647,0.6,0.5,Yes,No,53,non-binary,England,NA,BA/BSc,left/liberal,7,1,3,5,7,1,7
4434160,mobile,Chrome 92.0.4515.131,nm_1,35,35,558.1000000014901,SH,TRUE,SH,NM,SH,pair,coda,push,FALSE,4.92,34.83622897,0,3617,ʊ,444.06320867077545,1052.8060205473794,0.6,0.5,Yes,No,53,non-binary,England,NA,BA/BSc,left/liberal,7,1,3,5,7,1,7
4434160,mobile,Chrome 92.0.4515.131,nm_1,49,36,383.8999999985099,S,TRUE,S,NM,SS,pair,onset,sought,FALSE,4.13,42.84970627,0,5753,ɔ:,449.13357223033415,1000.69297730879,0.6,0.5,Yes,No,53,non-binary,England,NA,BA/BSc,left/liberal,7,1,3,5,7,1,7
4434160,mobile,Chrome 92.0.4515.131,nm_1,44,38,442.3999999985099,S,TRUE,S,NM,SS,pair,coda,plus,FALSE,4.78,36.53544495,0,5201,ʌ,637.2470101127309,1202.1883602585203,0.6,0.5,Yes,No,53,non-binary,England,NA,BA/BSc,left/liberal,7,1,3,5,7,1,7
4434160,mobile,Chrome 92.0.4515.131,nm_1,47,40,466.1000000014901,S,TRUE,S,NM,SS,pair,onset,sin,FALSE,3.96,43.9163708,0,5970,ɪ,416.70711900247017,1881.87631709883,0.6,0.5,Yes,No,53,non-binary,England,NA,BA/BSc,left/liberal,7,1,3,5,7,1,7
4434160,mobile,Chrome 92.0.4515.131,nm_1,51,42,476.79999999701977,TH,TRUE,TH,NM,TH,pair,coda,death,TRUE,5.14,25.17853656,2,4331,ɛ,625.846855705086,1657.2325794868837,0.6,0.5,Yes,No,53,non-binary,England,NA,BA/BSc,left/liberal,7,1,3,5,7,1,7
4434160,mobile,Chrome 92.0.4515.131,nm_1,58,43,437.6000000014901,TH,TRUE,TH,NM,TH,pair,onset,thin,TRUE,4.48,30.14064943,2,2954,ɪ,424.2859030964207,1971.0932396265157,0.6,0.5,Yes,No,53,non-binary,England,NA,BA/BSc,left/liberal,7,1,3,5,7,1,7
4434160,mobile,Chrome 92.0.4515.131,nm_1,26,45,470.20000000298023,TH,FALSE,F,NM,FF,pair,onset,fie,TRUE,2.47,30.77713035,1,8472,aɪ,498.69053418185376,1402.6273181156027,0.6,0.5,Yes,No,53,non-binary,England,NA,BA/BSc,left/liberal,7,1,3,5,7,1,7
4434160,mobile,Chrome 92.0.4515.131,nm_1,25,46,386.09999999403954,F,TRUE,F,NM,FF,pair,coda,roof,TRUE,4.72,32.55925052,1,5188,u:,441.0453789240863,1379.6535606635946,0.6,0.5,Yes,No,53,non-binary,England,NA,BA/BSc,left/liberal,7,1,3,5,7,1,7
4434160,mobile,Chrome 92.0.4515.131,nm_1,40,48,642.4000000059605,SH,TRUE,SH,NM,SH,pair,onset,shy,FALSE,4.27,39.50228141,0,3622,ʌɪ,633.998539992286,1682.0075151606634,0.6,0.5,Yes,No,53,non-binary,England,NA,BA/BSc,left/liberal,7,1,3,5,7,1,7
4434160,mobile,Chrome 92.0.4515.131,nm_1,29,51,726.1000000014901,TH,FALSE,F,NM,FF,pair,onset,fought,TRUE,4.47,34.6954365,1,8605,ɔ:,448.2673753038556,861.6077780914028,0.6,0.5,Yes,No,53,non-binary,England,NA,BA/BSc,left/liberal,7,1,3,5,7,1,7
4434160,mobile,Chrome 92.0.4515.131,nm_1,59,52,402.3999999985099,TH,TRUE,TH,NM,TH,pair,onset,thole,TRUE,1.54,30.4873532,2,8529,əʊ,487.9462078116454,945.9301497091374,0.6,0.5,Yes,No,53,non-binary,England,NA,BA/BSc,left/liberal,7,1,3,5,7,1,7
4434160,mobile,Chrome 92.0.4515.131,nm_1,55,53,434.79999999701977,TH,TRUE,TH,NM,TH,pair,coda,wreath,TRUE,3.28,26.84374713,2,6030,i:,349.13545342914,2016.8549233676465,0.6,0.5,Yes,No,53,non-binary,England,NA,BA/BSc,left/liberal,7,1,3,5,7,1,7
4434160,mobile,Chrome 92.0.4515.131,nm_1,38,55,496.1000000014901,SH,TRUE,SH,NM,SH,pair,onset,shore,FALSE,4.12,37.97554534,0,4134,ɔ:,466.6179707694524,1175.1149784517122,0.6,0.5,Yes,No,53,non-binary,England,NA,BA/BSc,left/liberal,7,1,3,5,7,1,7
4434160,mobile,Chrome 92.0.4515.131,nm_1,46,56,637.7000000029802,S,TRUE,S,NM,SS,pair,onset,sigh,FALSE,3.66,41.37901249,0,5979,aɪ,509.30414504772887,1388.106480031303,0.6,0.5,Yes,No,53,non-binary,England,NA,BA/BSc,left/liberal,7,1,3,5,7,1,7
4434160,mobile,Chrome 92.0.4515.131,nm_1,42,57,392.59999999403954,S,TRUE,S,NM,SS,pair,coda,lease,FALSE,3.84,39.49037225,0,5490,i:,287.40550444881274,2354.793065190407,0.6,0.5,Yes,No,53,non-binary,England,NA,BA/BSc,left/liberal,7,1,3,5,7,1,7
4434160,mobile,Chrome 92.0.4515.131,nm_1,48,58,396.69999999552965,S,TRUE,S,NM,SS,pair,onset,sore,FALSE,4.06,44.26134749,0,5943,ɔ:,437.5607903939694,1155.5882277347737,0.6,0.5,Yes,No,53,non-binary,England,NA,BA/BSc,left/liberal,7,1,3,5,7,1,7
4434160,mobile,Chrome 92.0.4515.131,nm_1,27,59,383,F,TRUE,F,NM,FF,pair,onset,fin,TRUE,3.59,31.84145761,1,5117,ɪ,441.4452841620668,1945.6091687046203,0.6,0.5,Yes,No,53,non-binary,England,NA,BA/BSc,left/liberal,7,1,3,5,7,1,7
4436102,computer,Chrome 92.0.4515.131,nm_1,31,1,915.7999999998136,SH,TRUE,SH,NM,SH,pair,coda,ash,FALSE,4.19,35.42637673,0,3533,a,614.3227347989738,1500.7920108495807,0.6,1,Yes,No,55,female,Other (please specify),Armenia,MA/MSc,prefer not to say,6,1,7,5,5,2,6
4436102,computer,Chrome 92.0.4515.131,nm_1,49,2,1139.7000000001865,S,TRUE,S,NM,SS,pair,onset,sought,FALSE,4.13,42.84970627,0,5753,ɔ:,449.13357223033415,1000.69297730879,0.6,1,Yes,No,55,female,Other (please specify),Armenia,MA/MSc,prefer not to say,6,1,7,5,5,2,6
4436102,computer,Chrome 92.0.4515.131,nm_1,29,4,2447.199999999255,F,TRUE,F,NM,FF,pair,onset,fought,TRUE,4.47,34.6954365,1,8605,ɔ:,448.2673753038556,861.6077780914028,0.6,1,Yes,No,55,female,Other (please specify),Armenia,MA/MSc,prefer not to say,6,1,7,5,5,2,6
4436102,computer,Chrome 92.0.4515.131,nm_1,33,5,775.0999999996275,SH,TRUE,SH,NM,SH,pair,coda,mesh,FALSE,3.27,33.56798697,0,3601,ɛ,558.9508597606649,1699.9650124253706,0.6,1,Yes,No,55,female,Other (please specify),Armenia,MA/MSc,prefer not to say,6,1,7,5,5,2,6
4436102,computer,Chrome 92.0.4515.131,nm_1,59,7,928,TH,TRUE,TH,NM,TH,pair,onset,thole,TRUE,1.54,30.4873532,2,8529,əʊ,487.9462078116454,945.9301497091374,0.6,1,Yes,No,55,female,Other (please specify),Armenia,MA/MSc,prefer not to say,6,1,7,5,5,2,6
4436102,computer,Chrome 92.0.4515.131,nm_1,56,8,3717.2999999998137,TH,TRUE,TH,NM,TH,pair,onset,thaw,TRUE,3.27,28.96203439,2,8045,ɔ:,435.1453476697292,808.8805808693594,0.6,1,Yes,No,55,female,Other (please specify),Armenia,MA/MSc,prefer not to say,6,1,7,5,5,2,6
4436102,computer,Chrome 92.0.4515.131,nm_1,26,9,697.9000000003725,F,TRUE,F,NM,FF,pair,onset,fie,TRUE,2.47,30.77713035,1,8472,aɪ,498.69053418185376,1402.6273181156027,0.6,1,Yes,No,55,female,Other (please specify),Armenia,MA/MSc,prefer not to say,6,1,7,5,5,2,6
4436102,computer,Chrome 92.0.4515.131,nm_1,51,10,1008.0999999996276,TH,TRUE,TH,NM,TH,pair,coda,death,TRUE,5.14,25.17853656,2,4331,ɛ,625.846855705086,1657.2325794868837,0.6,1,Yes,No,55,female,Other (please specify),Armenia,MA/MSc,prefer not to say,6,1,7,5,5,2,6
4436102,computer,Chrome 92.0.4515.131,nm_1,54,11,1026.300000000745,TH,TRUE,TH,NM,TH,pair,coda,ruth,TRUE,4.39,29.52085089,1,3193,u:,356.2940484527308,1278.746062263053,0.6,1,Yes,No,55,female,Other (please specify),Armenia,MA/MSc,prefer not to say,6,1,7,5,5,2,6
4436102,computer,Chrome 92.0.4515.131,nm_1,42,12,755.5999999996275,S,TRUE,S,NM,SS,pair,coda,lease,FALSE,3.84,39.49037225,0,5490,i:,287.40550444881274,2354.793065190407,0.6,1,Yes,No,55,female,Other (please specify),Armenia,MA/MSc,prefer not to say,6,1,7,5,5,2,6
4436102,computer,Chrome 92.0.4515.131,nm_1,57,13,863.5,TH,TRUE,TH,NM,TH,pair,onset,thigh,TRUE,3.48,32.62028023,2,4097,aɪ,528.706484934861,1449.172226026241,0.6,1,Yes,No,55,female,Other (please specify),Armenia,MA/MSc,prefer not to say,6,1,7,5,5,2,6
4436102,computer,Chrome 92.0.4515.131,nm_1,44,15,671.4000000003725,S,TRUE,S,NM,SS,pair,coda,plus,FALSE,4.78,36.53544495,0,5201,ʌ,637.2470101127309,1202.1883602585203,0.6,1,Yes,No,55,female,Other (please specify),Armenia,MA/MSc,prefer not to say,6,1,7,5,5,2,6
4436102,computer,Chrome 92.0.4515.131,nm_1,53,17,686.4000000003725,TH,TRUE,TH,NM,TH,pair,coda,oath,TRUE,3.54,28.61263962,1,5905,əʊ,462.9541289738834,1188.000083415647,0.6,1,Yes,No,55,female,Other (please specify),Armenia,MA/MSc,prefer not to say,6,1,7,5,5,2,6
4436102,computer,Chrome 92.0.4515.131,nm_1,24,18,1084.5,F,TRUE,F,NM,FF,pair,coda,reef,TRUE,3.79,29.65935414,1,6900,i:,350.4359996049278,1973.3230597501824,0.6,1,Yes,No,55,female,Other (please specify),Armenia,MA/MSc,prefer not to say,6,1,7,5,5,2,6
4436102,computer,Chrome 92.0.4515.131,nm_1,48,19,1101.9000000003723,S,TRUE,S,NM,SS,pair,onset,sore,FALSE,4.06,44.26134749,0,5943,ɔ:,437.5607903939694,1155.5882277347737,0.6,1,Yes,No,55,female,Other (please specify),Armenia,MA/MSc,prefer not to say,6,1,7,5,5,2,6
4436102,computer,Chrome 92.0.4515.131,nm_1,27,21,583.9000000003725,F,TRUE,F,NM,FF,pair,onset,fin,TRUE,3.59,31.84145761,1,5117,ɪ,441.4452841620668,1945.6091687046203,0.6,1,Yes,No,55,female,Other (please specify),Armenia,MA/MSc,prefer not to say,6,1,7,5,5,2,6
4436102,computer,Chrome 92.0.4515.131,nm_1,40,22,1628.0999999996277,SH,TRUE,SH,NM,SH,pair,onset,shy,FALSE,4.27,39.50228141,0,3622,ʌɪ,633.998539992286,1682.0075151606634,0.6,1,Yes,No,55,female,Other (please specify),Armenia,MA/MSc,prefer not to say,6,1,7,5,5,2,6
4436102,computer,Chrome 92.0.4515.131,nm_1,50,23,899.9000000003725,S,TRUE,S,NM,SS,pair,onset,soul,FALSE,4.53,40.65935899,0,5973,əʊ,488.7883811553887,837.4153882714268,0.6,1,Yes,No,55,female,Other (please specify),Armenia,MA/MSc,prefer not to say,6,1,7,5,5,2,6
4436102,computer,Chrome 92.0.4515.131,nm_1,35,26,895.5,SH,TRUE,SH,NM,SH,pair,coda,push,FALSE,4.92,34.83622897,0,3617,ʊ,444.06320867077545,1052.8060205473794,0.6,1,Yes,No,55,female,Other (please specify),Armenia,MA/MSc,prefer not to say,6,1,7,5,5,2,6
4436102,computer,Chrome 92.0.4515.131,nm_1,55,28,564.2000000011176,TH,TRUE,TH,NM,TH,pair,coda,wreath,TRUE,3.28,26.84374713,2,6030,i:,349.13545342914,2016.8549233676465,0.6,1,Yes,No,55,female,Other (please specify),Armenia,MA/MSc,prefer not to say,6,1,7,5,5,2,6
4436102,computer,Chrome 92.0.4515.131,nm_1,36,29,996,SH,TRUE,SH,NM,SH,pair,onset,shin,FALSE,3.3,38.63219732,0,3542,ɪ,428.0573131118717,2012.7319368425408,0.6,1,Yes,No,55,female,Other (please specify),Armenia,MA/MSc,prefer not to say,6,1,7,5,5,2,6
4436102,computer,Chrome 92.0.4515.131,nm_1,45,30,843.8000000007451,S,TRUE,S,NM,SS,pair,coda,puss,FALSE,3.12,38.76511023,0,5439,ʊ,433.7419937400706,1025.6692679574835,0.6,1,Yes,No,55,female,Other (please specify),Armenia,MA/MSc,prefer not to say,6,1,7,5,5,2,6
4436102,computer,Chrome 92.0.4515.131,nm_1,28,33,868.7999999988824,F,TRUE,F,NM,FF,pair,onset,foal,TRUE,3.15,28.57906601,1,9802,əʊ,452.4908077590797,806.181080281329,0.6,1,Yes,No,55,female,Other (please specify),Armenia,MA/MSc,prefer not to say,6,1,7,5,5,2,6
4436102,computer,Chrome 92.0.4515.131,nm_1,30,34,659.1000000014901,F,TRUE,F,NM,FF,pair,onset,four,TRUE,5.67,34.37218612,1,9416,ɔ:,452.2742670429064,908.1617544348076,0.6,1,Yes,No,55,female,Other (please specify),Armenia,MA/MSc,prefer not to say,6,1,7,5,5,2,6
4436102,computer,Chrome 92.0.4515.131,nm_1,41,35,1062.199999999255,S,TRUE,S,NM,SS,pair,coda,ass,FALSE,4.09,39.03014753,0,5034,a,718.4349765510347,1476.9724719998735,0.6,1,Yes,No,55,female,Other (please specify),Armenia,MA/MSc,prefer not to say,6,1,7,5,5,2,6
4436102,computer,Chrome 92.0.4515.131,nm_1,43,36,707.5999999996275,S,TRUE,S,NM,SS,pair,coda,mess,FALSE,4.79,36.17035307,0,5457,ɛ,628.444388543489,1653.820775737603,0.6,1,Yes,No,55,female,Other (please specify),Armenia,MA/MSc,prefer not to say,6,1,7,5,5,2,6
4436102,computer,Chrome 92.0.4515.131,nm_1,58,37,829,TH,TRUE,TH,NM,TH,pair,onset,thin,TRUE,4.48,30.14064943,2,2954,ɪ,424.2859030964207,1971.0932396265157,0.6,1,Yes,No,55,female,Other (please specify),Armenia,MA/MSc,prefer not to say,6,1,7,5,5,2,6
4436102,computer,Chrome 92.0.4515.131,nm_1,60,38,835.3000000007451,TH,TRUE,TH,NM,TH,pair,onset,thought,TRUE,5.84,30.03527609,2,7602,ɔ:,454.5535158131208,1126.436300020404,0.6,1,Yes,No,55,female,Other (please specify),Armenia,MA/MSc,prefer not to say,6,1,7,5,5,2,6
4436102,computer,Chrome 92.0.4515.131,nm_1,38,41,1379.9000000003723,SH,TRUE,SH,NM,SH,pair,onset,shore,FALSE,4.12,37.97554534,0,4134,ɔ:,466.6179707694524,1175.1149784517122,0.6,1,Yes,No,55,female,Other (please specify),Armenia,MA/MSc,prefer not to say,6,1,7,5,5,2,6
4436102,computer,Chrome 92.0.4515.131,nm_1,34,42,899.3000000007451,SH,TRUE,SH,NM,SH,pair,coda,plush,FALSE,2.98,33.82094552,0,4158,ʌ,590.105107191927,1053.0985381501737,0.6,1,Yes,No,55,female,Other (please specify),Armenia,MA/MSc,prefer not to say,6,1,7,5,5,2,6
4436102,computer,Chrome 92.0.4515.131,nm_1,39,44,612.0999999996275,SH,TRUE,SH,NM,SH,pair,onset,short,FALSE,5.13,37.41534288,0,4620,ɔ:,489.9511213017793,1540.7832085298107,0.6,1,Yes,No,55,female,Other (please specify),Armenia,MA/MSc,prefer not to say,6,1,7,5,5,2,6
4436102,computer,Chrome 92.0.4515.131,nm_1,47,46,842,S,TRUE,S,NM,SS,pair,onset,sin,FALSE,3.96,43.9163708,0,5970,ɪ,416.70711900247017,1881.87631709883,0.6,1,Yes,No,55,female,Other (please specify),Armenia,MA/MSc,prefer not to say,6,1,7,5,5,2,6
4436102,computer,Chrome 92.0.4515.131,nm_1,37,51,719.4000000003725,SH,TRUE,SH,NM,SH,pair,onset,shoal,FALSE,3.04,37.64432653,0,3948,əʊ,500.6312383937159,1031.0206693781254,0.6,1,Yes,No,55,female,Other (please specify),Armenia,MA/MSc,prefer not to say,6,1,7,5,5,2,6
4436102,computer,Chrome 92.0.4515.131,nm_1,52,52,732.4000000003725,TH,TRUE,TH,NM,TH,pair,coda,loath,TRUE,2.69,27.1697819,1,4313,əʊ,449.7029396444894,1115.2451376787778,0.6,1,Yes,No,55,female,Other (please specify),Armenia,MA/MSc,prefer not to say,6,1,7,5,5,2,6
4436102,computer,Chrome 92.0.4515.131,nm_1,46,53,655.6999999992549,S,TRUE,S,NM,SS,pair,onset,sigh,FALSE,3.66,41.37901249,0,5979,aɪ,509.30414504772887,1388.106480031303,0.6,1,Yes,No,55,female,Other (please specify),Armenia,MA/MSc,prefer not to say,6,1,7,5,5,2,6
4436102,computer,Chrome 92.0.4515.131,nm_1,23,55,589.5999999996275,TH,FALSE,F,NM,FF,pair,coda,oaf,TRUE,2.7,27.98698369,1,6466,əʊ,472.57339295927466,1180.0522494371749,0.6,1,Yes,No,55,female,Other (please specify),Armenia,MA/MSc,prefer not to say,6,1,7,5,5,2,6
4436102,computer,Chrome 92.0.4515.131,nm_1,21,56,956.6999999992548,TH,FALSE,F,NM,FF,pair,coda,deaf,TRUE,3.9,27.47261099,1,6129,e,609.7158180834749,1637.553975745216,0.6,1,Yes,No,55,female,Other (please specify),Armenia,MA/MSc,prefer not to say,6,1,7,5,5,2,6
4436102,computer,Chrome 92.0.4515.131,nm_1,25,57,839.3000000007451,F,TRUE,F,NM,FF,pair,coda,roof,TRUE,4.72,32.55925052,1,5188,u:,441.0453789240863,1379.6535606635946,0.6,1,Yes,No,55,female,Other (please specify),Armenia,MA/MSc,prefer not to say,6,1,7,5,5,2,6
4436102,computer,Chrome 92.0.4515.131,nm_1,32,58,1012.0999999996276,SH,TRUE,SH,NM,SH,pair,coda,leash,FALSE,3.12,34.41750304,0,3351,i:,297.340730292577,2363.507119747921,0.6,1,Yes,No,55,female,Other (please specify),Armenia,MA/MSc,prefer not to say,6,1,7,5,5,2,6
4436102,computer,Chrome 92.0.4515.131,nm_1,22,59,660.5,F,TRUE,F,NM,FF,pair,coda,loaf,TRUE,3.77,29.03169428,1,6083,əʊ,450.0518968001741,1137.85837798808,0.6,1,Yes,No,55,female,Other (please specify),Armenia,MA/MSc,prefer not to say,6,1,7,5,5,2,6
4438277,computer,Chrome 92.0.4515.131,nm_1,43,1,832.3000000000466,S,TRUE,S,NM,SS,pair,coda,mess,FALSE,4.79,36.17035307,0,5457,ɛ,628.444388543489,1653.820775737603,0.6,1,No,No,34,female,Germany,NA,Other (please specify),center,7,2,7,7,7,4,6
4438277,computer,Chrome 92.0.4515.131,nm_1,49,2,3109.1999999999534,TH,FALSE,S,NM,SS,pair,onset,sought,FALSE,4.13,42.84970627,0,5753,ɔ:,449.13357223033415,1000.69297730879,0.6,1,No,No,34,female,Germany,NA,Other (please specify),center,7,2,7,7,7,4,6
4438277,computer,Chrome 92.0.4515.131,nm_1,28,4,797.1000000000931,X,FALSE,F,NM,FF,pair,onset,foal,TRUE,3.15,28.57906601,1,9802,əʊ,452.4908077590797,806.181080281329,0.6,1,No,No,34,female,Germany,NA,Other (please specify),center,7,2,7,7,7,4,6
4438277,computer,Chrome 92.0.4515.131,nm_1,30,5,533.3000000000466,F,TRUE,F,NM,FF,pair,onset,four,TRUE,5.67,34.37218612,1,9416,ɔ:,452.2742670429064,908.1617544348076,0.6,1,No,No,34,female,Germany,NA,Other (please specify),center,7,2,7,7,7,4,6
4438277,computer,Chrome 92.0.4515.131,nm_1,48,7,931.6000000000932,S,TRUE,S,NM,SS,pair,onset,sore,FALSE,4.06,44.26134749,0,5943,ɔ:,437.5607903939694,1155.5882277347737,0.6,1,No,No,34,female,Germany,NA,Other (please specify),center,7,2,7,7,7,4,6
4438277,computer,Chrome 92.0.4515.131,nm_1,45,11,676.6000000000931,S,TRUE,S,NM,SS,pair,coda,puss,FALSE,3.12,38.76511023,0,5439,ʊ,433.7419937400706,1025.6692679574835,0.6,1,No,No,34,female,Germany,NA,Other (please specify),center,7,2,7,7,7,4,6
4438277,computer,Chrome 92.0.4515.131,nm_1,32,13,614.3000000000466,SH,TRUE,SH,NM,SH,pair,coda,leash,FALSE,3.12,34.41750304,0,3351,i:,297.340730292577,2363.507119747921,0.6,1,No,No,34,female,Germany,NA,Other (please specify),center,7,2,7,7,7,4,6
4438277,computer,Chrome 92.0.4515.131,nm_1,22,14,1084.6999999999534,X,FALSE,F,NM,FF,pair,coda,loaf,TRUE,3.77,29.03169428,1,6083,əʊ,450.0518968001741,1137.85837798808,0.6,1,No,No,34,female,Germany,NA,Other (please specify),center,7,2,7,7,7,4,6
4438277,computer,Chrome 92.0.4515.131,nm_1,29,16,695,F,TRUE,F,NM,FF,pair,onset,fought,TRUE,4.47,34.6954365,1,8605,ɔ:,448.2673753038556,861.6077780914028,0.6,1,No,No,34,female,Germany,NA,Other (please specify),center,7,2,7,7,7,4,6
4438277,computer,Chrome 92.0.4515.131,nm_1,52,17,451.39999999990687,X,FALSE,TH,NM,TH,pair,coda,loath,TRUE,2.69,27.1697819,1,4313,əʊ,449.7029396444894,1115.2451376787778,0.6,1,No,No,34,female,Germany,NA,Other (please specify),center,7,2,7,7,7,4,6
4438277,computer,Chrome 92.0.4515.131,nm_1,33,20,588.3999999999069,SH,TRUE,SH,NM,SH,pair,coda,mesh,FALSE,3.27,33.56798697,0,3601,ɛ,558.9508597606649,1699.9650124253706,0.6,1,No,No,34,female,Germany,NA,Other (please specify),center,7,2,7,7,7,4,6
4438277,computer,Chrome 92.0.4515.131,nm_1,27,21,801.5,F,TRUE,F,NM,FF,pair,onset,fin,TRUE,3.59,31.84145761,1,5117,ɪ,441.4452841620668,1945.6091687046203,0.6,1,No,No,34,female,Germany,NA,Other (please specify),center,7,2,7,7,7,4,6
4438277,computer,Chrome 92.0.4515.131,nm_1,44,22,605.7000000001863,S,TRUE,S,NM,SS,pair,coda,plus,FALSE,4.78,36.53544495,0,5201,ʌ,637.2470101127309,1202.1883602585203,0.6,1,No,No,34,female,Germany,NA,Other (please specify),center,7,2,7,7,7,4,6
4438277,computer,Chrome 92.0.4515.131,nm_1,35,23,552,SH,TRUE,SH,NM,SH,pair,coda,push,FALSE,4.92,34.83622897,0,3617,ʊ,444.06320867077545,1052.8060205473794,0.6,1,No,No,34,female,Germany,NA,Other (please specify),center,7,2,7,7,7,4,6
4438277,computer,Chrome 92.0.4515.131,nm_1,57,24,571,TH,TRUE,TH,NM,TH,pair,onset,thigh,TRUE,3.48,32.62028023,2,4097,aɪ,528.706484934861,1449.172226026241,0.6,1,No,No,34,female,Germany,NA,Other (please specify),center,7,2,7,7,7,4,6
4438277,computer,Chrome 92.0.4515.131,nm_1,55,26,1277.5,TH,TRUE,TH,NM,TH,pair,coda,wreath,TRUE,3.28,26.84374713,2,6030,i:,349.13545342914,2016.8549233676465,0.6,1,No,No,34,female,Germany,NA,Other (please specify),center,7,2,7,7,7,4,6
4438277,computer,Chrome 92.0.4515.131,nm_1,47,27,516.3999999999069,S,TRUE,S,NM,SS,pair,onset,sin,FALSE,3.96,43.9163708,0,5970,ɪ,416.70711900247017,1881.87631709883,0.6,1,No,No,34,female,Germany,NA,Other (please specify),center,7,2,7,7,7,4,6
4438277,computer,Chrome 92.0.4515.131,nm_1,21,28,646.8000000000466,TH,FALSE,F,NM,FF,pair,coda,deaf,TRUE,3.9,27.47261099,1,6129,e,609.7158180834749,1637.553975745216,0.6,1,No,No,34,female,Germany,NA,Other (please specify),center,7,2,7,7,7,4,6
4438277,computer,Chrome 92.0.4515.131,nm_1,39,30,669.7999999998137,SH,TRUE,SH,NM,SH,pair,onset,short,FALSE,5.13,37.41534288,0,4620,ɔ:,489.9511213017793,1540.7832085298107,0.6,1,No,No,34,female,Germany,NA,Other (please specify),center,7,2,7,7,7,4,6
4438277,computer,Chrome 92.0.4515.131,nm_1,38,31,896.1000000000931,SH,TRUE,SH,NM,SH,pair,onset,shore,FALSE,4.12,37.97554534,0,4134,ɔ:,466.6179707694524,1175.1149784517122,0.6,1,No,No,34,female,Germany,NA,Other (please specify),center,7,2,7,7,7,4,6
4438277,computer,Chrome 92.0.4515.131,nm_1,46,34,443.5,S,TRUE,S,NM,SS,pair,onset,sigh,FALSE,3.66,41.37901249,0,5979,aɪ,509.30414504772887,1388.106480031303,0.6,1,No,No,34,female,Germany,NA,Other (please specify),center,7,2,7,7,7,4,6
4438277,computer,Chrome 92.0.4515.131,nm_1,53,37,674.1000000000931,TH,TRUE,TH,NM,TH,pair,coda,oath,TRUE,3.54,28.61263962,1,5905,əʊ,462.9541289738834,1188.000083415647,0.6,1,No,No,34,female,Germany,NA,Other (please specify),center,7,2,7,7,7,4,6
4438277,computer,Chrome 92.0.4515.131,nm_1,51,38,533.1999999999534,TH,TRUE,TH,NM,TH,pair,coda,death,TRUE,5.14,25.17853656,2,4331,ɛ,625.846855705086,1657.2325794868837,0.6,1,No,No,34,female,Germany,NA,Other (please specify),center,7,2,7,7,7,4,6
4438277,computer,Chrome 92.0.4515.131,nm_1,59,40,566.1000000000931,TH,TRUE,TH,NM,TH,pair,onset,thole,TRUE,1.54,30.4873532,2,8529,əʊ,487.9462078116454,945.9301497091374,0.6,1,No,No,34,female,Germany,NA,Other (please specify),center,7,2,7,7,7,4,6
4438277,computer,Chrome 92.0.4515.131,nm_1,26,41,966.4000000001396,F,TRUE,F,NM,FF,pair,onset,fie,TRUE,2.47,30.77713035,1,8472,aɪ,498.69053418185376,1402.6273181156027,0.6,1,No,No,34,female,Germany,NA,Other (please specify),center,7,2,7,7,7,4,6
4438277,computer,Chrome 92.0.4515.131,nm_1,24,42,925.8000000000466,X,FALSE,F,NM,FF,pair,coda,reef,TRUE,3.79,29.65935414,1,6900,i:,350.4359996049278,1973.3230597501824,0.6,1,No,No,34,female,Germany,NA,Other (please specify),center,7,2,7,7,7,4,6
4438277,computer,Chrome 92.0.4515.131,nm_1,41,43,792.6999999999534,S,TRUE,S,NM,SS,pair,coda,ass,FALSE,4.09,39.03014753,0,5034,a,718.4349765510347,1476.9724719998735,0.6,1,No,No,34,female,Germany,NA,Other (please specify),center,7,2,7,7,7,4,6
